hrv_mean_nni,hrv_median_nni,hrv_range_nni,hrv_sdsd,hrv_rmssd,hrv_pnni_50,hrv_pnni_20,hrv_cvsd,hrv_sdnn,hrv_cvnni,hrv_std_hr,hrv_total_power,hrv_lf,hrv_peaks,hrv_hf,hrv_mean,hrv_std,hrv_max,hrv_ptp,hrv_rms,hrv_iqr,hrv_iqr_5_95,hrv_pct_5,hrv_pct_95,hrv_svd_entropy,acc_x_mean,acc_x_min,acc_x_sum,acc_x_skewness,acc_x_n_sign_changes,acc_x_pct_5,acc_x_pct_95,acc_x_svd_entropy,acc_y_mean,acc_y_min,acc_y_max,acc_y_sum,acc_y_pct_5,acc_y_pct_95,acc_z_n_sign_changes,l2_pct_5,Stress
658.2902893,640.625,1015.625,75.18251559,75.1825868,25.95041322,62.14876033,0.114208865,103.1141114,0.156639272,14.7032619,6611.041457,1751.765998,163,1279.915801,658.2902893,103.0288579,1359.375,1015.625,666.3040226,109.375,328.125,531.25,859.375,0.353302551,826472.6609,-101,1586827509,43.78356451,22,-61,6,1,826483.2302,-92,1586886712,1586847802,-67,31,93,54.40955267,0
658.5638519,640.625,1015.625,74.41159158,74.41175562,25.62396007,61.5640599,0.112990951,102.8480742,0.156170239,14.68552381,6658.939267,1763.242338,160,1307.109407,658.5638519,102.7624744,1359.375,1015.625,666.5331749,109.375,328.125,531.25,859.375,0.353841136,826473.3901,-101,1586828909,43.78356451,26,-61,6,1,826481.8677,-92,1586886712,1586845186,-67,31,91,54.41507144,0
658.4411519,640.625,1015.625,74.32748921,74.32765454,25.87646077,61.93656093,0.112884279,102.6634285,0.155918913,14.67280424,6637.857638,1798.363698,159,1246.663192,658.4411519,102.5776971,1359.375,1015.625,666.383474,109.375,328.125,531.25,859.375,0.352923027,826473.776,-101,1586829650,43.78356451,29,-61,6,1,826480.6302,-92,1586886712,1586842810,-67,31,91,54.45869903,0
658.1156716,640.625,1015.625,74.1786185,74.17878197,26.03648425,62.02321725,0.112713897,102.1019388,0.155142847,14.61375932,6565.763102,1781.432939,160,1221.323802,658.1156716,102.017242,1359.375,1015.625,665.9757915,109.375,328.125,531.25,859.375,0.352534048,826474.1599,-101,1586830387,43.78356451,29,-61,6,1,826479.3766,-92,1586886712,1586840403,-68,31,91,54.30423553,0
658.0578512,640.625,1015.625,74.38247234,74.38263428,25.78512397,61.81818182,0.113033579,101.7193866,0.154575143,14.5718907,6562.875529,1734.207684,161,1306.695955,658.0578512,101.6352863,1359.375,1015.625,665.8602458,109.375,328.125,531.25,859.375,0.353910097,826474.3109,-101,1586830677,43.78356451,29,-61,6,1,826479.0667,-89,1586886712,1586839808,-68,31,95,54.82654463,0
658.0518946,640.625,1015.625,74.30301689,74.30317794,25.70016474,61.77924217,0.112913858,101.209695,0.153801996,14.51242676,6494.786186,1698.161771,162,1301.893182,658.0518946,101.1262919,1359.375,1015.625,665.7768566,109.375,328.125,531.25,859.375,0.352881604,826474.2161,-101,1586830495,43.78356451,29,-61,6,1,826478.3911,-89,1586886712,1586838511,-68,31,95,54.50458605,0
657.3514344,640.625,1015.625,73.89769213,73.89785248,25.90163934,61.63934426,0.112417572,100.2349026,0.152482975,14.41958343,6440.323897,1672.946231,162,1317.520692,657.3514344,100.1527091,1359.375,1015.625,664.9371951,109.375,328.125,531.25,859.375,0.35262632,826474.4745,-101,1586830991,43.78356451,27,-61,6,1,826477.5422,-91,1586886712,1586836881,-69,31,97,54.75308196,0
657.0911501,640.625,1015.625,73.97564884,73.97580745,25.77487765,61.17455139,0.112580739,99.75176848,0.151808114,14.36100005,6375.894426,1663.501724,162,1286.887591,657.0911501,99.67037167,1359.375,1015.625,664.6073747,109.375,328.125,531.25,859.375,0.351031297,826474.7448,-101,1586831510,43.78356451,27,-61,6,1,826476.9839,-91,1586886712,1586835809,-69,31,97,54.75308196,0
656.9613821,640.625,1015.625,73.90888827,73.90904599,25.85365854,61.30081301,0.112501355,99.24421506,0.151065523,14.31289362,6294.294052,1674.536277,164,1215.036155,656.9613821,99.16349588,1359.375,1015.625,664.4032334,109.375,328.125,531.25,859.375,0.350296149,826475.1646,-101,1586832316,43.78356451,27,-61,6,1,826476.3083,-91,1586886712,1586834512,-69,31,97,54.67814789,0
656.9138072,640.625,1015.625,74.3539034,74.35406171,25.98039216,60.78431373,0.113186937,99.33918721,0.151221037,14.33418424,6347.573631,1664.726149,162,1262.266445,656.9138072,99.25799456,1359.375,1015.625,664.370303,109.375,328.125,531.25,859.375,0.352214096,826475.2948,-101,1586832566,43.78356451,27,-61,6,1,826475.3474,-91,1586886712,1586832667,-70,31,97,54.0814195,0
656.9370928,640.625,1015.625,73.90450822,73.90466646,26.38436482,61.07491857,0.112498848,99.15474536,0.150934917,14.30808963,6350.537521,1692.012239,162,1244.079044,656.9370928,99.07396755,1359.375,1015.625,664.3658593,109.375,328.125,531.25,859.375,0.349929176,826475.8297,-101,1586833593,43.78356451,32,-61,6,1,826474.1984,-91,1586886712,1586830461,-70,31,97,54.01620033,0
657.0616883,640.625,1015.625,74.18130999,74.18146662,26.13636364,60.87662338,0.112898786,98.96235349,0.150613489,14.28299412,6298.583683,1725.055903,165,1168.26236,657.0616883,98.88199428,1359.375,1015.625,664.4604661,109.375,328.125,531.25,859.375,0.345337056,826476.4234,-101,1586834733,43.78356451,32,-61,6,1,826472.9151,-91,1586886712,1586827997,-71,31,97,53.94395236,0
656.756483,640.625,1015.625,73.79418025,73.79433718,25.76985413,60.61588331,0.112361795,98.68342044,0.150258769,14.2495537,6260.38123,1679.441396,165,1184.417928,656.756483,98.60341766,1359.375,1015.625,664.1172426,109.375,328.125,531.25,859.375,0.346077889,826477.1526,-101,1586836133,43.78356451,32,-61,6,1,826471.6969,-91,1586886712,1586825658,-71,31,99,53.39428805,0
656.7288306,640.625,1015.625,73.32525193,73.32540834,25.48387097,60.48387097,0.111652489,98.47016485,0.149940372,14.21883712,6243.227634,1636.048615,166,1217.686096,656.7288306,98.39072138,1359.375,1015.625,664.0583491,109.375,328.125,531.25,859.375,0.346112733,826477.5714,-101,1586836937,43.78356451,32,-60.05,6,1,826470.5531,-91,1586886712,1586823462,-72,31,100,53.23203729,0
656.8509615,648.4375,1015.625,73.50649757,73.5066516,25.48076923,60.25641026,0.111907656,98.31043809,0.149669322,14.19507655,6225.062701,1640.530823,166,1222.167039,656.8509615,98.23163212,1359.375,1015.625,664.1555836,109.375,325.78125,531.25,857.03125,0.347201402,826477.6651,-101,1586837117,43.78356451,32,-60,6,1,826470.6318,-91,1586886712,1586823613,-72,31,99,53.12202929,0
657.3447452,656.25,1015.625,73.31946495,73.31961741,25.31847134,60.03184713,0.111539064,98.31734901,0.149567407,14.18817082,6214.376592,1649.412779,166,1203.876536,657.3447452,98.23903968,1359.375,1015.625,664.6450353,109.375,322.65625,531.25,853.90625,0.347322383,826477.6432,-101,1586837075,43.78356451,32,-60,6,1,826470.7849,-91,1586886712,1586823907,-72,32,98,53.1130869,0
657.4900794,656.25,1015.625,72.97445381,72.97460602,25.3968254,60.15873016,0.110989669,98.19870059,0.149353889,14.17303613,6202.040383,1667.147042,167,1182.226802,657.4900794,98.12073416,1359.375,1015.625,664.7713012,109.375,321.09375,531.25,852.34375,0.346773135,826477.4479,-101,1586836700,43.78356451,32,-60,6,1,826470.9448,-91,1586886712,1586824214,-72,33,98,53.1130869,0
657.4842022,656.25,1015.625,72.70016154,72.70031288,25.43443918,60.34755134,0.110573475,97.98116548,0.149024365,14.14202241,6166.956074,1691.466581,166,1136.35452,657.4842022,97.9037406,1359.375,1015.625,664.7334944,109.375,318.75,531.25,850,0.345266399,826477.976,-101,1586837714,43.78356451,32,-60,6,1,826471.3833,-91,1586886712,1586825056,-72,38,99,52.69724851,0
656.9368132,656.25,1015.625,72.45529275,72.45544269,25.27472527,59.96860283,0.110292864,98.04270866,0.14924222,14.16709067,6189.395061,1588.774947,166,1207.120901,656.9368132,97.96572183,1359.375,1015.625,664.2012189,109.375,315.625,531.25,846.875,0.346285671,826478.9969,-101,1586839674,43.78356451,35,-60,8,1,826471.7693,-91,1586886712,1586825797,-72,46,99,52.69724851,0
655.7632399,640.625,1015.625,77.37782291,77.37796113,25.23364486,59.81308411,0.117996796,98.36025385,0.149993546,14.33435707,6067.061188,1493.282779,167,1177.124581,655.7632399,98.28361944,1359.375,1015.625,663.0875482,109.375,312.5,531.25,843.75,0.348670711,826480.4427,-101,1586842450,43.78356451,35,-60,12,1,826472.0052,-91,1586886712,1586826250,-72,47,98,52.57993714,0
654.3392028,640.625,1015.625,77.05896764,77.05910472,25.07739938,59.13312693,0.117766297,98.68192286,0.150811571,14.53868348,6048.187232,1436.981216,167,1172.087546,654.3392028,98.60551408,1359.375,1015.625,661.7271641,109.375,312.5,531.25,843.75,0.353159892,826481.6823,-88,1586844830,43.78356451,37,-59.05,14,1,826471.9224,-91,1586886712,1586826091,-72,47,98,52.57993714,0
654.0557485,640.625,1015.625,76.718759,76.71889583,25.77160494,59.72222222,0.117297181,98.61518786,0.150774897,14.54454042,6085.656553,1520.677984,168,1115.055098,654.0557485,98.53906652,1359.375,1015.625,661.4369734,109.375,312.5,531.25,843.75,0.352763396,826482.8047,-81,1586846985,43.78356451,46,-59,15,1,826471.8729,-91,1586886712,1586825996,-72,47,98,52.47523024,0
654.1006569,640.625,1015.625,76.96984686,76.96998367,25.6568779,59.81452859,0.117672996,98.64271951,0.150806636,14.55840087,6104.977144,1647.621011,168,1001.644476,654.1006569,98.56645919,1359.375,1015.625,661.4854618,109.375,312.5,531.25,843.75,0.353275812,826484.1625,-81,1586849592,43.78356451,48,-59,18,1,826472.0453,-91,1586886712,1586826327,-72,47,96,52.51475917,0
654.2151163,640.625,1015.625,77.32005767,77.32019471,25.73643411,59.84496124,0.118187723,98.70421876,0.150874256,14.57633262,6105.889737,1739.26811,170,925.2625615,654.2151163,98.62767418,1359.375,1015.625,661.6077663,109.375,312.5,531.25,843.75,0.352643576,826485.3365,-81,1586851846,43.78356451,54,-58,19.05,1,826472.2604,-91,1586886712,1586826740,-72,47,88,52.51475917,0
654.3029595,648.4375,1015.625,77.67750112,77.67763881,26.01246106,60.28037383,0.118718153,98.77497595,0.150962141,14.59941027,6088.150904,1723.170286,169,961.6283118,654.3029595,98.69801842,1359.375,1015.625,661.7051168,109.375,327.34375,531.25,858.59375,0.355360089,826485.7859,-81,1586852709,43.78356451,55,-56.05,19.05,1,826472.263,-91,1586886712,1586826745,-72,47,88,52.41135369,0
654.342723,656.25,1015.625,77.34213849,77.34227808,26.13458529,60.7198748,0.118198423,99.08506832,0.151426867,14.65124834,6230.067554,1673.664884,169,1116.823593,654.342723,99.00750661,1359.375,1015.625,661.7906659,109.375,328.125,531.25,859.375,0.357629837,826486.1255,-81,1586853361,43.78356451,55,-56,19.05,1,826470.826,-91,1586886712,1586823986,-72,47,85,52.47523024,0
654.7339593,656.25,1015.625,77.16381578,77.16395569,25.82159624,60.56338028,0.117855435,99.02230168,0.151240516,14.64794928,6219.455237,1662.716317,167,1105.272175,654.7339593,98.9447891,1359.375,1015.625,662.1681273,109.375,328.125,531.25,859.375,0.357961323,826486.3313,-81,1586853756,43.78356451,55,-56,19.05,1,826469.3922,-91,1586886712,1586821233,-72,47,85,52.47523024,0
655.1216641,656.25,1015.625,77.52804409,77.52818423,25.74568289,59.96860283,0.118341658,98.66699458,0.150608658,14.61052598,6154.484043,1651.174076,167,1086.922343,655.1216641,98.58951754,1359.375,1015.625,662.498519,109.375,328.125,531.25,859.375,0.357499873,826486.612,-81,1586854295,43.78356451,55,-56,19.05,1,826468.0573,-91,1586886712,1586818670,-72,47,85,52.47523024,0
655.2918632,656.25,1015.625,77.84137322,77.84151322,25.47169811,59.74842767,0.118789073,98.22138837,0.149889528,14.51884392,6128.164629,1647.174336,166,1114.500657,655.2918632,98.14413992,1359.375,1015.625,662.600708,109.375,328.125,531.25,859.375,0.357772203,826486.7365,-81,1586854534,43.78356451,55,-56,19.05,1,826466.938,-91,1586886712,1586816521,-72,47,95,52.64646037,0
655.7103611,656.25,1015.625,77.95269766,77.95283703,25.74568289,60.1255887,0.118883034,98.03579974,0.149510829,14.49453968,6081.294918,1645.737371,167,1091.885837,655.7103611,97.95881834,1359.375,1015.625,662.9871852,109.375,328.125,531.25,859.375,0.357891704,826486.5604,-81,1586854196,43.78356451,55,-56,19.05,1,826467.0307,-91,1586886712,1586816699,-71.05,47,101,52.6948754,0
656.693612,656.25,1015.625,78.40821278,78.40835266,25.86750789,60.41009464,0.119398683,98.05222143,0.149311977,14.49030481,6063.835412,1608.41032,165,1128.05994,656.693612,97.97486266,1359.375,1015.625,663.9620273,109.375,328.125,531.25,859.375,0.359566775,826486.2958,-81,1586853688,43.78356451,48,-56,19.05,1,826467.087,-91,1586886712,1586816807,-71.05,47,105,52.6948754,0
657.6097706,656.25,1015.625,78.62100605,78.62114644,26.42405063,60.44303797,0.119555928,98.05515025,0.149108415,14.47569175,6062.545173,1570.755159,163,1169.584765,657.6097706,97.97754426,1359.375,1015.625,664.8685656,109.375,328.125,531.25,859.375,0.360909089,826486.1516,-81,1586853411,43.78356451,48,-56,19.05,1,826467.1635,-91,1586886712,1586816954,-71.05,47,107,52.6948754,0
657.9232283,656.25,1015.625,78.42004426,78.42018367,26.2992126,60.15748031,0.119193517,97.83568513,0.148703801,14.44115398,6042.10936,1548.596331,164,1171.654066,657.9232283,97.75861881,1359.375,1015.625,665.1463914,109.375,328.125,531.25,859.375,0.360027627,826485.9151,-81,1586852957,43.78356451,48,-56,19.05,1,826467.2036,-91,1586886712,1586817031,-71.05,47,111,52.6948754,0
658.0896782,656.25,1015.625,78.35055734,78.350696,26.2166405,59.96860283,0.11905778,97.77492699,0.148573865,14.4306414,6038.552562,1541.04453,164,1179.601064,658.0896782,97.69815044,1359.375,1015.625,665.3021518,109.375,328.125,531.25,859.375,0.359570569,826485.5943,-81,1586852341,43.78356451,47,-56,19.05,1,826467.2823,-91,1586886712,1586817182,-71.05,47,111,52.71527277,0
658.3496094,656.25,1015.625,78.25435218,78.25448971,26.09375,60,0.118864641,97.65528413,0.148333473,14.41284734,6019.992229,1531.900544,164,1180.359981,658.3496094,97.57896111,1359.375,1015.625,665.5417807,109.375,328.125,531.25,859.375,0.359413624,826484.9349,-81,1586851075,43.78356451,47,-56,19.05,1,826467.3276,-91,1586886712,1586817269,-71.05,47,116,52.71527277,0
658.6519798,656.25,1015.625,78.1515896,78.1517256,25.77639752,60.0931677,0.118654051,97.43164013,0.147925829,14.3832436,6007.955567,1540.425547,165,1179.705372,658.6519798,97.35596506,1359.375,1015.625,665.8082415,109.375,325.78125,531.25,857.03125,0.358427335,826484.9365,-81,1586851078,43.78356451,46,-56,19.05,1,826467.0443,-91,1586886712,1586816725,-71,47,120,53.12249994,0
658.7171053,656.25,1015.625,78.15150758,78.15164274,26.16099071,60.21671827,0.118642194,97.34681059,0.147782424,14.37117431,5987.12165,1544.645197,167,1179.965065,658.7171053,97.27143558,1359.375,1015.625,665.8603134,109.375,324.21875,531.25,855.46875,0.359585191,826485.1859,-81,1586851557,43.78356451,46,-56,19.05,1,826465.1703,-91,1586886712,1586813127,-71,43.05,116,53.16906992,0
659.5382104,656.25,1015.625,79.3744904,79.37462144,26.26728111,60.21505376,0.120348784,97.58611707,0.147961279,14.37939033,5997.759448,1550.372087,168,1202.844724,659.5382104,97.51113733,1359.375,1015.625,666.7076368,109.375,328.125,531.25,859.375,0.362599628,826485.6755,-81,1586852497,43.78356451,46,-53,19.05,1,826463.6839,-91,1586886712,1586810273,-71,43,121,53.48317022,0
660.0603911,656.25,1015.625,78.64397685,78.6441087,26.3803681,60.58282209,0.119146838,97.4612357,0.147655028,14.35898698,5998.75374,1552.783179,168,1225.967337,660.0603911,97.38646681,1359.375,1015.625,667.205998,109.375,328.125,531.25,859.375,0.362829048,826486.075,-81,1586853264,43.78356451,46,-51,19.05,1,826462.9578,-91,1586886712,1586808879,-71,43,131,53.81449619,0
660.622133,656.25,1015.625,79.09274489,79.09287519,26.29969419,60.24464832,0.119724834,97.39169003,0.147424201,14.34561888,5960.829671,1579.653381,170,1181.431412,660.622133,97.31720307,1359.375,1015.625,667.751631,109.375,328.125,531.25,859.375,0.36092856,826485.6995,-81,1586852543,43.78356451,46,-51,19.05,1,826463.1234,-91,1586886712,1586809197,-71,43,134,53.97082511,0
660.9899009,656.25,1015.625,78.85854346,78.85867335,26.37195122,60.51829268,0.1193039,97.38238339,0.147328096,14.34396426,5969.980605,1595.890484,172,1172.093427,660.9899009,97.30813071,1359.375,1015.625,668.114153,109.375,328.125,531.25,859.375,0.360454743,826485.1995,-81,1586851583,43.78356451,43,-51,19.05,1,826463.3234,-91,1586886712,1586809581,-70,43,130,54.16456346,0
661.2031011,656.25,1015.625,78.68364488,78.68377626,26.33996937,60.6431853,0.119000918,97.38484394,0.147284312,14.35625761,5969.537606,1592.054542,172,1177.244456,661.2031011,97.31024811,1359.375,1015.625,668.3253888,109.375,328.125,531.25,859.375,0.357832679,826484.2755,-81,1586849809,43.78356451,43,-51,18,1,826463.5214,-91,1586886712,1586809961,-69,43,129,54.16456346,0
661.4024156,656.25,1015.625,78.29509302,78.29522546,26.22699387,60.88957055,0.118377592,97.49177828,0.147401606,14.37125272,5994.169623,1592.77783,171,1200.616046,661.4024156,97.41698596,1359.375,1015.625,668.538125,125,328.125,531.25,859.375,0.357739451,826483.7198,-81,1586848742,43.78356451,42,-51,18,1,826463.7688,-91,1586886712,1586810436,-69,43,131,54.16456346,0
661.7139571,656.25,1015.625,78.30467219,78.30480461,26.3803681,61.04294479,0.118336335,97.63432442,0.147547627,14.3865332,6002.226249,1581.818448,172,1207.132123,661.7139571,97.55942274,1359.375,1015.625,668.8671033,113.28125,328.125,531.25,859.375,0.35779335,826483.301,-81,1586847938,43.78356451,42,-51,18,1,826463.9979,-91,1586886712,1586810876,-69,43,137,54.16456346,0
662.2115385,656.25,1015.625,78.71728618,78.71741873,26.61538462,61.23076923,0.118870503,98.03267391,0.148038305,14.42739778,6030.356501,1606.091911,173,1184.961588,662.2115385,97.95723513,1359.375,1015.625,669.4174644,109.375,328.125,531.25,859.375,0.356907992,826482.8766,-81,1586847123,43.78356451,42,-51,18,1,826464.2182,-91,1586886712,1586811299,-69,43,143,54.16456346,0
662.8707627,656.25,1015.625,78.99292307,78.99305556,26.19414484,61.17103236,0.119168109,98.37500653,0.148407521,14.46284618,6030.316505,1631.699919,173,1149.382702,662.8707627,98.29918763,1359.375,1015.625,670.1196746,109.375,328.125,531.25,859.375,0.357437739,826482.4432,-81,1586846291,43.78356451,42,-51,18,1,826464.4219,-91,1586886712,1586811690,-69,43,150,54.16456346,0
663.6171032,656.25,1015.625,78.62481046,78.62494357,26.04006163,60.86286595,0.118479381,98.77870105,0.148848938,14.48432625,6092.68842,1648.836492,172,1146.09714,663.6171032,98.70257102,1359.375,1015.625,670.9171761,109.375,328.125,531.25,859.375,0.358318431,826481.9495,-81,1586845343,43.78356451,42,-51,18,1,826464.7021,-91,1586886712,1586812228,-69,43,158,54.16456346,0
664.8208783,656.25,1015.625,79.14064082,79.14077306,26.81047766,61.47919877,0.119040746,99.49128748,0.149651268,14.53314807,6165.461676,1645.706652,174,1189.870353,664.8208783,99.41460825,1359.375,1015.625,672.2128119,109.375,328.125,531.25,859.375,0.360488084,-22.2,-81,-42624,0.687263186,39,-52,17.05,0.534718202,-38.71145833,-91,65,-74326,-69,42.05,162,54.16456346,0
665.5863003,656.25,1015.625,78.88425677,78.88439068,26.00619195,61.60990712,0.118518651,100.0608388,0.150334883,14.58080671,6231.543345,1610.883587,172,1213.155715,665.5863003,99.98336235,1359.375,1015.625,673.054081,109.375,328.125,531.25,859.375,0.359929097,-22.82447917,-81,-43823,0.716310361,37,-53,17.05,0.530344825,-38.56354167,-91,65,-74042,-69,42.05,166,54.4049451,0
666.4644798,656.25,1015.625,78.83364457,78.8337794,25.62111801,61.64596273,0.118286543,100.8403321,0.151306386,14.63669929,6286.619661,1606.018951,171,1193.41218,666.4644798,100.7620095,1359.375,1015.625,674.0384896,109.375,328.125,531.25,859.375,0.361142634,-23.08489583,-81,-44323,0.747214036,37,-53,17.05,0.531070708,-38.51510417,-91,65,-73949,-69,42.05,177,54.4049451,0
667.8419629,656.25,1015.625,79.52486238,79.52499479,25.96599691,61.66924266,0.119077565,101.6710893,0.152238246,14.69148945,6392.054241,1611.75083,172,1224.389709,667.8419629,101.5924877,1359.375,1015.625,675.5249225,109.375,328.125,531.25,859.375,0.358063982,-23.34895833,-81,-44830,0.779514387,37,-53,17.05,0.531779844,-38.478125,-91,65,-73878,-69,42.05,184,54.4049451,0
669.0538194,656.25,1015.625,78.90105367,78.90118672,25.92592593,61.41975309,0.117929506,102.210853,0.152769254,14.7218208,6454.499955,1623.180092,172,1206.490963,669.0538194,102.1319561,1359.375,1015.625,676.8042182,109.375,328.125,531.25,859.375,0.357883259,-23.59739583,-81,-45307,0.811508952,37,-53,17.05,0.531470969,-38.45364583,-91,65,-73831,-69,42.05,193,54.4049451,0
669.3147014,656.25,1015.625,78.63604133,78.63617279,25.57427259,61.56202144,0.117487592,101.5965372,0.151791881,14.67090746,6385.639814,1638.636776,175,1157.608809,669.3147014,101.5187153,1359.375,1015.625,676.9698805,109.375,328.125,531.25,859.375,0.355133205,-23.878125,-81,-45846,0.813817481,37,-53,17.05,0.527310902,-38.30052083,-91,65,-73537,-69,42.05,192,54.74166426,0
669.1793893,656.25,1015.625,77.90954847,77.90968034,25.80152672,61.3740458,0.116425702,100.9985766,0.150929001,14.62185212,6378.458762,1659.980017,174,1156.933038,669.1793893,100.921449,1359.375,1015.625,676.7467724,109.375,328.125,531.25,859.375,0.35476978,-24.08802083,-81,-46249,0.812915484,37,-53,17.05,0.527167669,-38.1546875,-91,65,-73257,-69,42.05,197,54.74166426,0
669.5610687,656.25,1015.625,78.57749538,78.57762614,26.25954198,61.67938931,0.117356922,100.9747887,0.150807437,14.62069184,6346.468498,1607.056097,175,1165.726635,669.5610687,100.8976793,1359.375,1015.625,677.1206439,109.375,328.125,531.25,859.375,0.355781435,-24.77291667,-81,-47564,0.882685513,36,-53,17.05,0.523745858,-37.915625,-91,65,-72798,-69,42.05,202,54.74166426,0
670.6804281,671.875,1015.625,78.65190063,78.65203166,26.14678899,61.46788991,0.117271995,100.9809066,0.150564863,14.60825352,6364.163197,1554.050395,174,1197.764879,670.6804281,100.9036746,1359.375,1015.625,678.2284189,109.375,328.125,531.25,859.375,0.354353054,-25.46875,-81,-48900,0.955069288,35,-53,17.05,0.518542891,-37.6546875,-91,65,-72297,-69,42.05,207,54.74166426,0
670.8015267,671.875,1015.625,78.63448397,78.63461463,26.10687023,61.52671756,0.117224859,100.6846627,0.150096055,14.580987,6354.034215,1540.673495,174,1211.592823,670.8015267,100.6077748,1359.375,1015.625,678.3042183,109.375,328.125,531.25,859.375,0.354720978,-25.43489583,-81,-48835,0.985673724,35,-52,17.05,0.514781977,-37.6703125,-91,65,-72327,-69,42.05,206,54.78001428,0
671.3501908,671.875,1015.625,79.42803104,79.4281604,26.25954198,61.67938931,0.118311071,100.9315726,0.150341169,14.59941616,6339.519111,1561.464249,174,1159.730653,671.3501908,100.8544962,1359.375,1015.625,678.8834275,109.375,328.125,531.25,859.375,0.352988385,-25.41979167,-81,-48806,0.990567823,35,-52,17.05,0.514137502,-37.67864583,-91,65,-72343,-69,42.05,201,54.91584381,0
671.2039877,671.875,1015.625,79.28512833,79.28525912,26.68711656,61.96319018,0.118123939,100.8064951,0.150187569,14.60511624,6391.060999,1548.165414,174,1203.912798,671.2039877,100.7291598,1359.375,1015.625,678.7202345,109.375,328.125,531.25,859.375,0.356695889,-25.77083333,-81,-49480,1.024321499,35,-52.05,17.05,0.513150575,-37.49583333,-91,65,-71992,-69,42.05,208,54.8698447,0
671.1778846,671.875,1015.625,79.69093312,79.69106404,26.61538462,62,0.118733149,100.9596682,0.150421625,14.62639112,6403.576443,1558.109923,174,1197.489573,671.1778846,100.881977,1359.375,1015.625,678.7171179,109.375,328.125,531.25,859.375,0.35677585,-26.05416667,-81,-50024,1.049376633,35,-53,17.05,0.512946643,-37.359375,-91,65,-71730,-69,42.05,209,54.81605546,0
671.4409722,671.875,1015.625,80.33237931,80.33250999,26.69753086,61.88271605,0.119641954,100.8723467,0.150232635,14.60983694,6339.97034,1574.481146,174,1137.625978,671.4409722,100.7944831,1359.375,1015.625,678.9642899,109.375,328.125,531.25,859.375,0.355956024,-26.146875,-81,-50202,1.065053774,35,-53,17.05,0.512188282,-37.26458333,-91,65,-71548,-68,42.05,209,55.00863565,0
671.8508501,671.875,1015.625,79.39644637,79.396579,26.89335394,61.97836167,0.1181759,100.8970265,0.150177717,14.6209123,6384.062491,1591.321468,173,1152.559782,671.8508501,100.8190234,1359.375,1015.625,679.3732702,109.375,328.125,531.25,859.375,0.355542082,-26.59322917,-81,-51059,1.12823498,30,-53,17.05,0.510119993,-37.121875,-91,65,-71274,-67.05,42.05,210,55,0
671.8033257,671.875,1015.625,78.92712472,78.9272553,26.75840979,61.9266055,0.117485657,100.365927,0.149397782,14.55549208,6312.874579,1519.699617,174,1171.150583,671.8033257,100.2891652,1359.375,1015.625,679.2478377,109.375,328.125,531.25,859.375,0.356290495,-27.03072917,-81,-51899,1.192210804,28,-53,17.05,0.507383603,-37.01927083,-91,65,-71077,-67,42.05,213,55,0
672.112462,671.875,1015.625,78.9269749,78.92710389,26.443769,61.70212766,0.117431395,100.2841076,0.149207333,14.53904134,6353.862213,1489.428228,174,1235.951995,672.112462,100.2078749,1359.375,1015.625,679.5415953,109.375,328.125,531.25,859.375,0.356050489,-27.3140625,-81,-52443,1.241557541,28,-53,17.05,0.505863323,-36.88802083,-91,65,-70825,-66,42.05,213,55.16792192,0
672.2998489,671.875,1015.625,78.49511784,78.49524597,26.58610272,61.93353474,0.116756305,100.3152066,0.149212002,14.52889222,6394.753223,1496.521577,174,1277.794969,672.2998489,100.2394111,1359.375,1015.625,679.7315841,109.375,328.125,531.25,859.375,0.358270963,-27.53958333,-81,-52876,1.283178369,28,-53,17.05,0.504571255,-36.73802083,-91,65,-70537,-66,42.05,208,55.21639218,0
673.7284159,671.875,1015.625,79.30718777,79.30731307,26.27627628,61.56156156,0.117714069,100.9449835,0.149830378,14.55100264,6397.027286,1536.194035,174,1238.560782,673.7284159,100.8691705,1359.375,1015.625,681.2375268,105.46875,328.125,531.25,859.375,0.359355679,-27.90572917,-81,-53579,1.34187546,28,-53,17.05,0.501083937,-36.57447917,-91,65,-70223,-65,42.05,208,55.4977477,0
673.6653646,671.875,1015.625,78.99799602,78.99800975,26.63690476,62.05357143,0.117265951,100.8586595,0.149716261,14.53432823,6414.471005,1598.627289,176,1204.033356,673.6653646,100.7835879,1359.375,1015.625,681.1625027,109.375,328.125,531.25,859.375,0.358335451,-28.06510417,-81,-53885,1.367658521,28,-53,17.05,0.500168991,-36.39375,-89,65,-69876,-64,42.05,205,55.35205475,0
673.6832344,671.875,1015.625,78.61104037,78.61104379,26.40949555,62.01780415,0.116688437,100.8469034,0.149694839,14.53799976,6455.806933,1651.098413,175,1210.800422,673.6832344,100.7720634,1359.375,1015.625,681.1784708,105.46875,328.125,531.25,859.375,0.3590337,-28.23489583,-81,-54211,1.296672193,28,-54,17.05,0.502515332,-36.5546875,-89,65,-70185,-65,42.05,211,55.21775077,0
673.1176362,671.875,1015.625,78.95028699,78.95028699,26.5095729,61.7083947,0.117290475,100.9012494,0.14990136,14.55868613,6453.998643,1649.639482,176,1215.071938,673.1176362,100.8269206,1359.375,1015.625,680.6272255,109.375,328.125,531.25,859.375,0.36017689,-28.6203125,-81,-54951,1.286395837,28,-54.05,17.05,0.50411618,-36.0734375,-89,65,-69261,-65.05,42.05,215,54.91584381,0
672.8905096,671.875,1015.625,78.48474864,78.48474864,26.14475628,61.29985229,0.116638216,100.9886145,0.150081793,14.57015124,6485.344,1666.666161,176,1209.952367,672.8905096,100.9140015,1359.375,1015.625,680.4155154,109.375,328.125,531.25,859.375,0.360364314,-28.4984375,-81,-54717,1.283965646,28,-54,17.05,0.498391407,-36.25260417,-89,65,-69605,-65,42.05,215,55.31229095,0
673.0025773,671.875,1015.625,78.39646788,78.39646788,26.3622975,61.11929308,0.116487619,100.8722644,0.14988392,14.55457596,6467.482185,1652.293288,175,1176.802865,673.0025773,100.797957,1359.375,1015.625,680.5091456,109.375,328.125,531.25,859.375,0.359886227,-28.70572917,-81,-55115,1.324272906,23,-54,17.05,0.497180937,-36.24635417,-89,65,-69593,-65,42.05,216,55.49053082,0
673.1579912,671.875,1015.625,78.38841422,78.38841422,26.39296188,61.14369501,0.116448761,100.7885408,0.149724941,14.5369679,6462.269129,1662.64696,175,1172.385573,673.1579912,100.7146218,1359.375,1015.625,680.6505096,109.375,328.125,531.25,859.375,0.360114859,-29.1125,-81,-55896,1.326364814,23,-56,17.05,0.494880419,-35.85572917,-89,65,-68843,-65,42.05,222,55.71085946,0
673.2436131,671.875,1015.625,78.17067378,78.17067378,26.27737226,60.72992701,0.116110532,100.6618872,0.149517775,14.51501251,6449.241272,1643.938425,175,1171.511551,673.2436131,100.5883846,1359.375,1015.625,680.7165238,109.375,328.125,531.25,859.375,0.359855844,-29.4125,-81,-56472,1.374988206,23,-56,17.05,0.494470958,-34.08125,-84,65,-65436,-64,46,221,55.71085946,0
673.8110423,671.875,1015.625,77.67892725,77.67892725,26.38483965,60.64139942,0.115282954,100.8285488,0.149639205,14.53310072,6480.387312,1659.329261,176,1181.295631,673.8110423,100.7550318,1359.375,1015.625,681.3023537,93.75,328.125,531.25,859.375,0.362496684,-29.44947917,-81,-56543,1.424815956,23,-55,17.05,0.491182027,-32.29479167,-84,66,-62006,-64,50,222,55.73060187,0
674.4715743,671.875,1015.625,78.20023749,78.20023749,26.23906706,60.64139942,0.11594297,101.8040106,0.150938919,14.73222448,6603.733912,1708.932388,176,1157.163153,674.4715743,101.7297824,1359.375,1015.625,682.1003249,93.75,328.125,531.25,859.375,0.362848924,-29.05416667,-81,-55784,1.454903155,23,-53.05,17.05,0.493252573,-31.78020833,-84,66,-61018,-64,52,222,55.89856719,0
674.850109,671.875,1015.625,77.90863416,77.90863416,26.1627907,60.1744186,0.115445835,101.8425742,0.150911399,14.73002797,6609.152088,1718.883858,178,1147.854304,674.850109,101.7685338,1359.375,1015.625,682.4804057,93.75,328.125,531.25,859.375,0.361373932,-28.88333333,-91,-55456,1.414657731,23,-53,17.05,0.495928412,-32.09166667,-84,66,-61616,-64,52,222,55.65878174,0
675.4354136,671.875,1015.625,77.92944275,77.92944275,26.12481858,59.94194485,0.115376602,102.3477459,0.151528546,14.76958416,6649.513409,1733.866861,177,1154.810735,675.4354136,102.2734463,1359.375,1015.625,683.134581,93.75,328.125,531.25,859.375,0.361975064,-28.58333333,-91,-54880,1.419170657,23,-52,17.05,0.504402949,-33.57135417,-84,66,-64457,-64,52,224,55.32585287,0
675.4251085,671.875,1015.625,77.4655136,77.4655136,26.33863965,59.91316932,0.114691492,102.2064115,0.151321605,14.74878377,6659.26762,1733.30608,177,1171.625942,675.4251085,102.1324292,1359.375,1015.625,683.1032941,93.75,328.125,531.25,859.375,0.359618091,-28.640625,-91,-54990,1.432224635,25,-52,17.05,0.505368025,-35.48072917,-84,66,-68123,-65,50,231,55.63856407,0
675.4877168,671.875,1015.625,77.46875245,77.46875245,26.15606936,59.8265896,0.114685657,101.9622195,0.150946075,14.7104162,6624.960159,1743.549973,179,1163.933946,675.4877168,101.8885208,1359.375,1015.625,683.1287771,93.75,328.125,531.25,859.375,0.357946996,-29.13958333,-91,-55948,1.509528534,22,-52,14.1,0.50644046,-36.96145833,-84,66,-70966,-65,49,231,54.99772633,0
675.4425578,671.875,1015.625,77.68281156,77.68281156,26.30057803,59.97109827,0.115010241,101.7834671,0.150691522,14.68464857,6596.01801,1734.964587,179,1186.819082,675.4425578,101.7098976,1359.375,1015.625,683.0575028,93.75,328.125,531.25,859.375,0.357652248,-29.6515625,-91,-56931,1.291346962,29,-52,9,0.506542488,-37.26927083,-84,66,-71557,-65,46.05,231,55.21775077,0
676.1939219,671.875,1015.625,77.95270857,77.95270857,26.04920405,59.76845152,0.115281587,101.289882,0.149794133,14.50552434,6472.290266,1684.853074,181,1210.036471,676.1939219,101.2165632,1359.375,1015.625,683.727294,93.75,328.125,531.25,859.375,0.358470559,-29.74427083,-91,-57109,1.211691502,27,-52,10,0.505818551,-36.75052083,-84,66,-70561,-65,50,231,55.20731774,0
676.345737,671.875,1015.625,78.04581733,78.04581733,26.15606936,59.68208092,0.115393375,101.2464762,0.149696332,14.50111672,6461.893193,1675.985839,180,1219.927907,676.345737,101.1732948,1359.375,1015.625,683.8710343,93.75,328.125,531.25,859.375,0.358786427,-29.71822917,-91,-57059,1.165650046,18,-52,10,0.495811368,-36.2484375,-84,66,-69597,-65,52,231,55.49639597,0
676.510492,671.875,1015.625,78.22457422,78.22457422,25.90448625,59.76845152,0.115629506,101.3701536,0.149842692,14.51862444,6491.49595,1687.261418,180,1232.470708,676.510492,101.2967767,1359.375,1015.625,684.0522515,109.375,328.125,531.25,859.375,0.359914215,-30.05989583,-91,-57715,0.793370821,16,-52,9,0.494998443,-36.03385417,-84,66,-69185,-65,52,231,55.50630591,0
676.2589928,671.875,1015.625,78.26446485,78.26446485,25.89928058,60,0.115731496,101.6538808,0.150317973,14.55786085,6520.171595,1696.636324,181,1237.722369,676.2589928,101.5807222,1359.375,1015.625,683.8456467,109.375,328.125,531.25,859.375,0.3607716,-30.14010417,-91,-57869,0.697597578,10,-52,8,0.490516297,-35.9234375,-84,66,-68973,-65,52,231,55.65878174,0
676.2849212,671.875,1015.625,77.53317803,77.53317803,25.93123209,60.0286533,0.114645729,101.3296942,0.149832846,14.51671115,6496.141149,1722.033835,181,1222.147222,676.2849212,101.2570824,1359.375,1015.625,683.8232896,105.46875,328.125,531.25,859.375,0.358155196,-29.48802083,-91,-56617,0.712888006,9,-51,9,0.48609213,-35.58645833,-84,66,-68326,-65,52,231,56.11461455,0
677.0608836,671.875,1015.625,77.8795605,77.8795605,26.43678161,60.20114943,0.115025934,99.96685443,0.14764825,13.97014947,6110.397942,1618.135623,180,1152.567251,677.0608836,99.89501335,1359.375,1015.625,684.3905711,97.65625,328.125,531.25,859.375,0.357779651,-28.8203125,-91,-55335,0.706327688,9,-50,9,0.479810432,-33.85885417,-84,66,-65009,-65,52,231,56.11461455,0
678.2598921,671.875,1000,77.9356495,77.9356495,26.47482014,60,0.11490529,99.3394623,0.146462239,13.60255709,5850.25369,1591.373549,180,1033.025289,678.2598921,99.26796933,1359.375,1000,685.4856752,109.375,328.125,531.25,859.375,0.355811716,-28.40520833,-91,-54538,0.692513039,9,-50,9,0.478663718,-32.05052083,-84,66,-61537,-65,52,231,56.12441533,0
677.8466236,671.875,1000,77.39542434,77.39542434,25.86206897,59.62643678,0.114178373,99.28989084,0.146478403,13.59553606,5841.23497,1625.763967,178,1014.002348,677.8466236,99.21853625,1359.375,1000,685.0696045,93.75,328.125,531.25,859.375,0.356493018,-28.10520833,-91,-53962,0.681686812,17,-50,9,0.477120235,-30.34375,-84,66,-58260,-64,52,230,56.43092723,0
678.017396,671.875,1000,77.48933203,77.48933203,25.82496413,59.3974175,0.114288118,99.31738592,0.146482062,13.58567199,5805.642261,1667.886729,178,956.5021165,678.017396,99.24611402,1359.375,1000,685.2425705,93.75,328.125,531.25,859.375,0.354127075,-27.61145833,-91,-53014,0.630166384,24,-50,9,0.482517199,-29.25,-84,66,-56160,-64,52,220,55.95265734,0
678.1473214,671.875,1000,77.66540422,77.66540422,25.57142857,59,0.114525859,99.42055417,0.14660613,13.59359133,5776.744114,1664.876876,181,919.2850047,678.1473214,99.3495141,1359.375,1000,685.3861069,93.75,328.125,531.25,859.375,0.351898693,-27.56041667,-91,-52916,0.623595868,28,-50,9,0.499249651,-29.2640625,-84,66,-56187,-64.05,52,216,55.79112665,0
678.679078,671.875,1000,76.37874371,76.37874371,25.53191489,59.0070922,0.112540295,99.10032001,0.146019412,13.52439019,5792.466151,1627.566117,182,966.0854143,678.679078,99.03001115,1359.375,1000,685.8660467,109.375,328.125,531.25,859.375,0.351377781,-27.4,-91,-52608,0.6246017,31,-50,9,0.502212814,-29.23333333,-84,66,-56128,-65,52,211,55.50630591,0
679.0594147,671.875,1000,76.78044976,76.78044976,25.52891396,58.95627645,0.113068824,99.23225886,0.146131924,13.52727588,5765.220121,1622.083682,183,951.8076826,679.0594147,99.16225373,1359.375,1000,686.2614962,109.375,328.125,531.25,859.375,0.35121506,-26.79427083,-91,-51445,0.607899601,34,-50,9,0.503241973,-29.10208333,-84,66,-55876,-65,52,209,55.50630591,0
679.2395105,671.875,1000,76.3855731,76.3855731,25.73426573,59.3006993,0.112457494,99.15652073,0.145981674,13.52861095,5780.411729,1631.819437,185,958.3408316,679.2395105,99.08715624,1359.375,1000,686.428858,109.375,328.125,531.25,859.375,0.35125728,-26.328125,-91,-50550,0.566827761,39,-50,9,0.502590271,-29.04010417,-84,66,-55757,-65,52,205,55.50630591,0
679.4921875,671.875,1000,76.15519141,76.15519141,25.55555556,59.30555556,0.112076625,98.86907688,0.145504361,13.49299683,5761.119673,1606.429286,186,964.3565642,679.4921875,98.80039394,1359.375,1000,686.6375687,109.375,328.125,531.25,859.375,0.350710727,-25.88854167,-91,-49706,0.514995586,50,-50,9,0.501130675,-28.99479167,-84,66,-55670,-65,52,200,55.50630591,0
679.7526042,671.875,1000,75.99003914,75.99003914,25.27777778,59.16666667,0.111790729,98.79710003,0.145342731,13.48673121,5756.806202,1600.783753,185,964.8542345,679.7526042,98.72846709,1359.375,1000,686.8849344,109.375,328.125,531.25,859.375,0.349970569,-25.40885417,-91,-48785,0.472942997,50,-50,9,0.500627764,-28.9578125,-84,66,-55599,-65,52,195,55.50630591,0
679.9144191,671.875,1000,75.78293443,75.78293443,24.89626556,59.197787,0.111459519,98.54121615,0.144931793,13.45277272,5723.699296,1595.71079,187,942.2861708,679.9144191,98.47304511,1359.375,1000,687.0084118,109.375,328.125,531.25,859.375,0.348882773,-24.89114583,-91,-47791,0.432643522,50,-50,9,0.497498716,-28.9265625,-84,66,-55539,-65,52,189,55.50630591,0
679.925554,671.875,1000,75.70139838,75.70139838,24.65373961,58.72576177,0.111337775,98.57816383,0.144983761,13.45807175,5727.741273,1596.584154,186,936.5877242,679.925554,98.50987275,1359.375,1000,687.0247114,109.375,328.125,531.25,859.375,0.348746272,-24.56875,-91,-47172,0.400839222,61,-50,9,0.495366792,-28.809375,-84,66,-55314,-65,52,186,55.50630591,0
679.8063624,671.875,1000,75.84983519,75.84983519,24.4813278,58.64453665,0.111575648,98.50021938,0.144894524,13.446053,5730.324917,1560.232732,187,968.7001044,679.8063624,98.43207671,1359.375,1000,686.8955991,109.375,328.125,531.25,859.375,0.349922173,-24.66302083,-91,-47353,0.389196024,63,-51,9,0.508394454,-28.74895833,-84,66,-55198,-66,52,182,55.03498855,0
680.1866319,671.875,1000,75.92298317,75.92298317,24.44444444,58.61111111,0.111620811,98.41361872,0.144686199,13.41381648,5726.615031,1533.035185,187,984.3057536,680.1866319,98.34525219,1359.375,1000,687.2595164,109.375,328.125,531.25,859.375,0.350160346,-24.35729167,-91,-46766,0.354395955,66,-51,9,0.509759231,-28.82083333,-84,66,-55336,-66,52,171,55.03498855,0
680.3937761,671.875,1000,75.98926121,75.98926121,24.33936022,58.55354659,0.111684239,98.34567912,0.144542297,13.40232284,5721.010621,1530.111836,188,982.9216605,680.3937761,98.27726473,1359.375,1000,687.4548067,109.375,328.125,531.25,859.375,0.349627691,-24.38489583,-91,-46819,0.345407376,66,-51,9,0.508350586,-28.71666667,-84,66,-55136,-66,52,170,55.00636198,0
680.385824,671.875,1000,75.90598626,75.90598626,24.30167598,58.65921788,0.111563151,98.52282875,0.144804353,13.42655235,5738.773849,1542.629746,187,972.0040416,680.385824,98.45400385,1359.375,1000,687.4722252,109.375,328.125,531.25,859.375,0.349579393,-24.60052083,-91,-47233,0.339510223,66,-52,9,0.505496087,-28.53958333,-84,66,-54796,-66,52,176,54.95361666,0
680.6066176,671.875,1000,75.37907503,75.37907503,24.22969188,58.54341737,0.11075278,98.07342855,0.144097083,13.36788595,5712.182441,1543.049574,185,955.6060901,680.6066176,98.00472561,1359.375,1000,687.626566,109.375,328.125,531.25,859.375,0.348933468,-24.74270833,-91,-47506,0.335185634,66,-53,9,0.504327183,-28.41614583,-84,66,-54559,-66,52,183,54.92676939,0
680.6091994,671.875,1000,75.75293067,75.75293067,24.15730337,58.42696629,0.111301656,98.12643486,0.144174417,13.3769802,5719.656172,1557.189243,185,951.0769442,680.6091994,98.05750163,1359.375,1000,687.6366453,109.375,328.125,531.25,859.375,0.349497839,-24.94583333,-91,-47896,0.318954584,66,-54,9,0.500975681,-28.17916667,-84,66,-54104,-66,52,181,54.92676939,0
680.7160364,671.875,1000,72.73904768,72.73904768,24.50980392,58.54341737,0.106856668,97.68402246,0.143501867,13.15679569,5793.10273,1562.08602,186,1042.20652,680.7160364,97.61559231,1359.375,1000,687.6795228,109.375,328.125,531.25,859.375,0.349682742,-25.19791667,-91,-48380,0.299913084,66,-56,9,0.496591852,-27.72083333,-84,66,-53224,-66,52,179,54.92676939,0
680.734986,671.875,1000,72.3121587,72.3121587,24.72067039,58.51955307,0.106226594,97.54446333,0.14329286,13.13871807,5877.964691,1628.975364,186,1037.332473,680.734986,97.47632189,1359.375,1000,687.6785256,109.375,328.125,531.25,859.375,0.348016091,-25.12083333,-91,-48232,0.292503843,66,-56,9,0.496348349,-27.04322917,-84,66,-51923,-66,52,172,54.92676939,0
680.4056407,671.875,1000,72.4137117,72.4137117,24.79108635,58.49582173,0.106427265,97.51348663,0.143316693,13.13164124,5770.756237,1683.096128,187,864.4189153,680.4056407,97.44555664,1359.375,1000,687.3481449,109.375,328.125,531.25,859.375,0.340691983,-25.23333333,-91,-48448,0.270795825,66,-57,9,0.494655779,-26.38333333,-84,66,-50656,-66,52,166,54.91356486,0
680.2097841,671.875,1000,72.16878365,72.16878365,24.79108635,58.21727019,0.106097832,97.55662679,0.143421381,13.13458978,5778.639071,1681.621281,185,864.5872875,680.2097841,97.48866674,1359.375,1000,687.160382,109.375,328.125,531.25,859.375,0.340507604,-25.43072917,-91,-48827,0.252927832,66,-58,9,0.490667369,-26.09166667,-84,66,-50096,-66,52,162,54.91356486,0
680.1432292,671.875,1000,72.26125653,72.26125653,24.72222222,58.33333333,0.106244175,97.43599118,0.143258048,13.11765933,5754.670583,1672.346077,187,860.083439,680.1432292,97.36830378,1359.375,1000,687.0774329,109.375,328.125,531.25,859.375,0.340332116,-25.58229167,-91,-49118,0.241708941,66,-58,9,0.486262389,-25.903125,-84,66,-49734,-66,52,172,54.92676939,0
680.46875,671.875,1000,72.39270903,72.39270903,24.72222222,58.47222222,0.10638653,97.24904235,0.142914781,13.0833416,5715.041105,1668.00006,186,864.4682316,680.46875,97.18148483,1359.375,1000,687.3732325,109.375,328.125,531.25,859.375,0.340607813,-25.7875,-91,-49512,0.224261928,66,-59,9,0.479409981,-25.58333333,-84,66,-49120,-66,52,166,54.92676939,0
680.5195367,671.875,1000,72.96869022,72.96869022,24.89626556,58.50622407,0.107224975,97.63819927,0.143475968,13.14493597,5730.471079,1660.306961,187,865.9939907,680.5195367,97.57065295,1359.375,1000,687.4786339,109.375,328.125,531.25,859.375,0.341744186,-26.278125,-91,-50454,0.210111479,66,-59,9,0.471496831,-24.903125,-84,66,-47814,-66,52,159,54.82654463,0
680.6344697,671.875,1000,72.33036039,72.33036039,24.93112948,58.67768595,0.106269023,97.50185352,0.143251419,13.12520667,5750.790003,1655.201169,188,901.4349184,680.6344697,97.43468035,1359.375,1000,687.5731221,109.375,328.125,531.25,859.375,0.343169357,-26.60052083,-91,-51073,0.22167618,66,-59,9,0.468614306,-24.12395833,-84,66,-46318,-66,52,153,54.7635697,0
680.3116391,671.875,1000,72.73890483,72.73890483,25.06887052,58.67768595,0.106919977,97.33162268,0.143069172,13.11141746,5723.574905,1637.760313,189,874.2564296,680.3116391,97.26456678,1359.375,1000,687.2294539,105.46875,328.125,531.25,859.375,0.341662645,-26.82552083,-91,-51505,0.233143545,66,-59.05,9,0.467544427,-23.60625,-84,66,-45324,-66,52,145,54.59073956,0
680.1724138,671.875,1000,72.8539506,72.8539506,25.10344828,58.75862069,0.107111005,96.6135664,0.142042759,13.03097839,5624.75091,1587.29436,190,874.905473,680.1724138,96.54691337,1359.375,1000,686.9904067,93.75,328.125,531.25,859.375,0.339027056,-26.95885417,-91,-51761,0.231840408,66,-60,9,0.463422231,-23.096875,-84,66,-44346,-66,52,139,54.59073956,0
680.1953665,671.875,1000,72.73196664,72.73196664,25.03457815,58.64453665,0.106928054,96.3119229,0.1415945,12.9938576,5591.389629,1581.823917,188,884.4978835,680.1953665,96.2452941,1359.375,1000,686.9708096,93.75,328.125,531.25,859.375,0.339252213,-26.809375,-91,-51474,0.218573752,66,-60,9,0.464615393,-22.75885417,-84,66,-43697,-66,52,131,54.30285384,0
680.3484743,671.875,1000,73.14417632,73.14417632,24.54923717,58.25242718,0.10750987,96.10920399,0.141264672,12.95979092,5558.67626,1575.027983,186,896.4635642,680.3484743,96.04253093,1359.375,1000,687.094036,93.75,328.125,531.25,859.375,0.340394567,-27.10833333,-91,-52048,0.199101568,66,-60,9,0.465031759,-22.25572917,-84,66,-42731,-66,52,126,54.21023795,0
680.2083333,671.875,1000,72.82761633,72.82761633,24.72222222,58.75,0.107066634,95.77311166,0.140799674,12.93058078,5541.647744,1571.23426,186,885.0211975,680.2083333,95.70657944,1359.375,1000,686.9083826,93.75,328.125,531.25,859.375,0.339662731,-27.378125,-91,-52566,0.190704474,66,-61,9,0.462982198,-21.865625,-84,66,-41982,-66,52,118,54.21023795,0
680.5338542,671.875,1000,73.05571962,73.05571962,24.72222222,59.02777778,0.107350603,95.48672327,0.140311496,12.88004732,5485.047301,1560.688098,188,885.2527694,680.5338542,95.42039001,1359.375,1000,687.1909323,93.75,328.125,531.25,859.375,0.339226082,-27.63072917,-91,-53051,0.188224262,66,-61,9,0.460425481,-21.45729167,-84,66,-41198,-66,52,116,54.21023795,0
681.0495119,671.875,1000,73.18065822,73.18065822,25.24407252,58.71687587,0.107452772,95.42591367,0.140115971,12.87063469,5458.522246,1572.785955,186,882.6067396,681.0495119,95.35934518,1359.375,1000,687.6931309,93.75,328.125,531.25,859.375,0.339244354,-27.95208333,-91,-53668,0.187379434,66,-61,9,0.456854929,-20.99791667,-84,66,-40316,-66,52,116,54.21023795,0
681.4199791,671.875,1000,73.22723748,73.22723748,25.24407252,58.43793584,0.10746271,95.27685296,0.139821044,12.84762067,5425.268957,1573.360111,186,897.121943,681.4199791,95.21038845,1359.375,1000,688.0393927,93.75,328.125,531.25,859.375,0.339931159,-28.24427083,-91,-54229,0.193149389,66,-61,9,0.451917396,-20.54479167,-84,66,-39446,-66,52,108,54.30285384,0
681.6596932,671.875,1000,74.15727662,74.15727662,25.24407252,58.43793584,0.108789294,95.1683385,0.139612683,12.82542577,5368.515856,1534.963661,187,906.2301656,681.6596932,95.10194969,1359.375,1000,688.2618093,109.375,328.125,531.25,859.375,0.342141488,-28.590625,-91,-54894,0.199937067,66,-61,9,0.445576701,-20.09166667,-84,66,-38576,-66,52,107,54.41828113,0
682.8387605,671.875,1000,74.29929955,74.29929955,25.35014006,58.82352941,0.108809435,94.93945427,0.139036416,12.792681,5346.431452,1542.632561,185,946.4692686,682.8387605,94.87294677,1359.375,1000,689.3980337,109.375,328.125,531.25,859.375,0.341015478,-29.19947917,-91,-56063,0.234492032,66,-62,9,0.439944246,-19.5140625,-84,66,-37467,-66,52,107,54.41828113,0
683.1889006,671.875,1000,74.18399593,74.18399593,25.35014006,58.82352941,0.108584896,94.81528214,0.138783405,12.77861067,5362.156028,1543.337657,184,985.2130755,683.1889006,94.74886162,1359.375,1000,689.7277873,109.375,328.125,531.25,859.375,0.340226054,-29.57864583,-91,-56791,0.251146425,66,-62,9,0.436196276,-19.05,-84,66,-36576,-66,52,104,54.4417118,0
683.7194056,671.875,1000,74.18274825,74.18274825,25.17482517,58.32167832,0.108498819,94.46784952,0.138167571,12.72491702,5316.502972,1537.000747,183,981.2077035,683.7194056,94.40176497,1359.375,1000,690.2057076,109.375,328.125,531.25,859.375,0.340278979,-29.96041667,-91,-57524,0.263882302,66,-62,9,0.432875882,-18.53489583,-84,66,-35587,-66,52,102,54.4417118,0
684.1251753,671.875,1000,73.87491504,73.87491504,24.82468443,58.62552595,0.1079845,93.87927382,0.137225287,12.65722515,5278.964832,1556.369662,183,962.7232886,684.1251753,93.81341672,1359.375,1000,690.5274887,109.375,328.125,531.25,859.375,0.337825364,-30.50572917,-91,-58571,0.278321563,66,-63,9,0.430629586,-17.7703125,-84,66,-34119,-66,52,114,54.41828113,0
684.2521067,671.875,1000,73.39075086,73.39075086,25.14044944,59.12921348,0.107256887,93.43307446,0.136547734,12.59574647,5250.540692,1549.017285,183,957.3323937,684.2521067,93.36743829,1359.375,1000,690.5928063,109.375,328.125,531.25,859.375,0.340545194,-31.04583333,-91,-59608,0.30631567,66,-63,9,0.426322636,-16.80572917,-84,66,-32267,-66,52,118,54.41828113,0
684.7271127,671.875,1000,72.94394681,72.94394681,25.21126761,58.73239437,0.106529953,93.05624434,0.135902672,12.54287955,5227.426505,1561.260839,179,963.0801127,684.7271127,92.99068869,1359.375,1000,691.0126533,93.75,328.125,531.25,859.375,0.338699276,-31.49739583,-91,-60475,0.32100414,66,-63.05,9,0.422862483,-15.953125,-84,66,-30630,-66,52,118,54.41828113,0
685.0317348,671.875,1000,73.99481624,73.99481624,25.38787024,58.674189,0.108016625,92.93413287,0.135663982,12.52495574,5200.372206,1557.483881,180,982.6223594,685.0317348,92.86857086,1359.375,1000,691.29809,93.75,328.125,531.25,859.375,0.341347996,-31.94322917,-91,-61331,0.344767927,66,-64,9,0.418761099,-15.209375,-84,66,-29202,-65,52,118,54.59073956,0
685.5358404,671.875,1000,73.79018935,73.79018935,25.14124294,59.03954802,0.107638704,92.3169067,0.134663866,12.43385476,5160.792574,1530.290302,179,1025.760081,685.5358404,92.25168811,1359.375,1000,691.7150876,93.75,312.5,546.875,859.375,0.343758249,-32.08177083,-91,-61597,0.370317943,66,-63,9,0.413025895,-14.54635417,-84,66,-27929,-64,52,112,54.91356486,0
685.3713132,671.875,1000,73.47491996,73.47491996,25.14044944,59.26966292,0.107204545,91.76540309,0.133891514,12.36111614,5099.310842,1515.562342,180,978.8922251,685.3713132,91.70093845,1359.375,1000,691.478777,93.75,312.5,546.875,859.375,0.337800012,-32.26041667,-91,-61940,0.380880752,66,-63,9,0.406063956,-14.84427083,-84,66,-28501,-63,52,109,55.71130859,0
685.2364627,671.875,1000,71.67474399,71.67474399,25.3164557,59.35302391,0.104598555,91.04081157,0.132860431,12.26605935,5066.662012,1551.147726,181,935.8611113,685.2364627,90.97676597,1359.375,1000,691.2494353,93.75,312.5,546.875,859.375,0.334782072,-32.81197917,-91,-62999,0.427443188,66,-63,9,0.403047259,-14.35885417,-84,66,-27569,-62.05,52,109,55.71130859,0
685.7298951,671.875,1000,71.72203153,71.72203153,25.31468531,59.44055944,0.104592248,90.62285645,0.132155324,12.19449292,4997.649376,1489.247159,182,947.8005697,685.7298951,90.55946165,1359.375,1000,691.6838188,93.75,312.5,546.875,859.375,0.334696899,-33.52239583,-91,-64363,0.47524392,66,-64,9,0.398707027,-13.5171875,-84,66,-25953,-62,52,110,55.71130859,0
686.0815293,671.875,1000,71.52401762,71.52401762,25.27932961,59.3575419,0.104250027,90.3277981,0.131657528,12.14676599,4954.841387,1473.67287,183,928.486972,686.0815293,90.26469799,1359.375,1000,691.9939166,93.75,312.5,546.875,859.375,0.334093668,-33.8765625,-91,-65043,0.490663966,66,-64,9,0.396372507,-13.0609375,-84,66,-25077,-60,52,111,55.63856407,0
686.8444056,687.5,1000,71.66002744,71.66002744,25.45454545,59.72027972,0.104332258,90.19722183,0.131321186,12.12091208,4937.304807,1440.564174,182,961.5356132,686.8444056,90.13412478,1359.375,1000,692.7332805,93.75,312.5,546.875,859.375,0.33222889,-34.32395833,-91,-65902,0.512980975,66,-64,9,0.392115719,-14.221875,-84,66,-27306,-60,52,110,56.14979911,0
687.5217922,687.5,1000,71.56940286,71.56940286,25.38354254,59.27475593,0.10409765,89.78727542,0.130595534,12.06107043,4907.736314,1328.443422,182,1000.53579,687.5217922,89.72464041,1359.375,1000,693.3518052,93.75,312.5,546.875,859.375,0.335000464,-34.76875,-91,-66756,0.537612828,66,-64,9,0.38844406,-15.49791667,-84,61,-29756,-60,51,109,56.53715194,0
687.4782684,687.5,1000,72.18448719,72.18448719,25.59109875,59.24895688,0.104998937,89.8969535,0.130763338,12.08983129,4913.768887,1327.202838,183,1002.421505,687.4782684,89.83441648,1359.375,1000,693.3228627,93.75,312.5,546.875,859.375,0.336189694,-35.26875,-91,-67716,0.570288244,66,-64,9,0.386112439,-16.75,-84,61,-32160,-60,49,109,56.53715194,0
687.3263889,687.5,1000,72.51924113,72.51924113,25.55555556,59.02777778,0.105509176,89.99097625,0.130929028,12.10210823,4950.398393,1324.180594,183,996.5780483,687.3263889,89.9284608,1359.375,1000,693.1844581,93.75,312.5,546.875,859.375,0.335323718,-35.50729167,-88,-68174,0.603934828,66,-64,9,0.375877195,-17.321875,-84,61,-33258,-60,49,109,57.21669258,0
687.1527778,687.5,1000,72.7903071,72.7903071,25.41666667,58.75,0.10593031,89.99047315,0.130961376,12.1055936,4941.866778,1297.615143,183,1002.765659,687.1527778,89.92795805,1359.375,1000,693.0122493,93.75,312.5,546.875,859.375,0.334858547,-35.94479167,-88,-69014,0.633440844,66,-64,9,0.362081315,-16.83489583,-84,61,-32323,-59,49,107,57.76806184,0
686.8923611,687.5,1000,72.53796785,72.53796785,25.41666667,58.47222222,0.105603108,89.85314815,0.130811104,12.09331483,4918.952638,1273.579784,183,1002.662767,686.8923611,89.79072845,1359.375,1000,692.7362346,93.75,312.5,546.875,859.375,0.334228818,-36.47916667,-88,-70040,0.668374088,64,-64,9,0.353933329,-16.12552083,-82,61,-30961,-57,49,99,57.80008623,0
687.3913421,687.5,984.375,71.06888694,71.06888694,25.17385257,58.83171071,0.103389267,88.30553177,0.128464713,11.44034703,4659.824549,1161.385389,183,969.2862316,687.3913421,88.24410183,1359.375,984.375,693.0323793,93.75,312.5,546.875,859.375,0.329416631,-37.05052083,-88,-71137,0.709173689,64,-64,9,0.346536563,-15.81041667,-82,61,-30356,-57,49,99,58.76861334,0
687.9358438,687.5,984.375,70.64149106,70.64149443,24.9651325,58.57740586,0.102686166,88.14776479,0.1281337,11.38713918,4640.037952,1142.630191,181,975.9491295,687.9358438,88.08627349,1359.375,984.375,693.5523893,93.75,300,559.375,859.375,0.328433581,-38.08802083,-88,-73129,0.783032743,57,-64,9,0.339785707,-16.44010417,-82,61,-31565,-57,49,100,58.95124451,0
688.4318655,687.5,984.375,70.43054956,70.4305529,25.3814147,58.80721221,0.102305771,88.6190599,0.12872597,11.41366066,4688.216223,1186.401036,182,980.8870045,688.4318655,88.55758292,1359.375,984.375,694.1043717,93.75,296.875,562.5,859.375,0.331466661,-39.30416667,-88,-75464,0.852205854,57,-64,9,0.34588952,-17.5109375,-82,56,-33621,-57,49,104,58.95124451,0
688.2337707,687.5,984.375,70.18812146,70.18812478,25.13812155,58.97790055,0.101982971,88.59898805,0.128733857,11.41489334,4696.094425,1199.644424,181,970.367456,688.2337707,88.53777976,1359.375,984.375,693.9053693,93.75,296.875,562.5,859.375,0.331221183,-40.4703125,-88,-77703,0.93446276,57,-64,8,0.343045096,-18.646875,-82,53,-35802,-57,47,104,58.95124451,0
688.3644537,687.5,984.375,70.19818591,70.19818924,25.31120332,59.05947441,0.101978231,88.59810334,0.128708133,11.41510864,4697.666846,1211.675828,181,965.9461376,688.3644537,88.53681097,1359.375,984.375,694.0348608,93.75,296.875,562.5,859.375,0.331278943,-41.61979167,-88,-79910,1.021332822,57,-64,8,0.340173457,-19.73177083,-82,51,-37885,-57,46,104,58.95124451,0
688.4725104,687.5,984.375,70.27040381,70.27040715,25.31120332,58.92116183,0.102067121,88.50342391,0.128550411,11.40006107,4682.114169,1204.434368,182,963.5122615,688.4725104,88.44219704,1359.375,984.375,694.1299732,93.75,296.875,562.5,859.375,0.330791506,-42.56614583,-88,-81727,1.103341417,57,-64,7,0.3398601,-20.74947917,-82,51,-39839,-57,45,104,58.7605305,0
688.365651,687.5,984.375,70.59785824,70.59786156,25.20775623,58.72576177,0.102558664,88.36877671,0.128374762,11.38082346,4667.30437,1186.078192,183,981.3058658,688.365651,88.30755829,1359.375,984.375,694.0068402,93.75,296.875,562.5,859.375,0.331568901,-43.43020833,-88,-83386,1.181235763,57,-64,6,0.34400784,-21.69270833,-82,51,-41650,-57,40,104,58.72776172,0
688.2834262,687.5,984.375,70.6259686,70.62597196,25.34818942,58.91364903,0.102611757,88.34248311,0.128351897,11.38709164,4671.432669,1180.16212,182,990.0548332,688.2834262,88.28094184,1359.375,984.375,693.9218972,93.75,299.21875,560.15625,859.375,0.331915341,-44.303125,-88,-85062,1.270797884,57,-64,5,0.345217016,-22.625,-82,51,-43440,-57,6,104,58.67452493,0
688.0470938,687.5,984.375,71.31043565,71.31043901,25.35014006,58.82352941,0.1036418,88.5240736,0.128659905,11.41961896,4691.749091,1194.849112,181,985.1934035,688.0470938,88.46206023,1359.375,984.375,693.7105588,93.75,302.34375,557.03125,859.375,0.331702965,-45.25052083,-88,-86881,1.375130075,57,-64,5,0.343680212,-23.50520833,-82,51,-45130,-57,2,104,58.59820743,0
687.7194522,687.5,984.375,71.05394304,71.05394644,25.42134831,58.70786517,0.103318215,88.36476252,0.128489549,11.40747487,4661.887695,1220.979316,180,925.4965902,687.7194522,88.30268681,1359.375,984.375,693.3652785,93.75,303.90625,555.46875,859.375,0.328264725,-46.2890625,-88,-88875,1.492020853,49,-64,5,0.342673439,-24.2859375,-82,51,-46629,-57,0,104,58.43369625,0
687.6544845,687.5,984.375,70.00302341,70.0030269,25.28248588,58.47457627,0.10179971,88.33936338,0.128464753,11.40392328,4697.899628,1292.009099,178,898.9340337,687.6544845,88.27695478,1359.375,984.375,693.2975629,93.75,307.03125,552.34375,859.375,0.326376722,-47.08854167,-88,-90410,1.60366818,41,-64,4,0.331277209,-24.55833333,-82,11,-47152,-57,-1,104,58.55723693,0
687.677305,687.5,984.375,69.95896011,69.95896363,25.39007092,58.72340426,0.101732256,88.25466987,0.128337331,11.38289325,4669.680037,1287.354297,176,884.6726795,687.677305,88.19205569,1359.375,984.375,693.309393,93.75,296.875,562.5,859.375,0.328905255,-47.52239583,-88,-91243,1.681959714,38,-64,4,0.314654793,-23.66979167,-82,11,-45446,-56,-1,101,58.77031561,0
688.230347,687.5,984.375,75.85349951,75.85350274,25.77903683,59.06515581,0.110215283,88.98082354,0.129289305,11.40299002,4629.04059,1163.827827,177,1016.922002,688.230347,88.91778363,1359.375,984.375,693.9505622,93.75,296.875,562.5,859.375,0.334096628,-48.24270833,-91,-92626,1.744963522,34,-65,4,0.324369581,-22.8109375,-82,29,-43797,-55,0,106,58.9533685,0
688.4765625,687.5,984.375,75.39228147,75.39228475,25.71022727,58.66477273,0.109505957,88.87665907,0.129091771,11.3820814,4622.353243,1153.293205,175,1028.915122,688.4765625,88.81351401,1359.375,984.375,694.1814009,93.75,296.875,562.5,859.375,0.333636657,-49.50364583,-91,-95047,1.838516488,32,-66,2,0.324123443,-21.91041667,-82,29,-42068,-55,1,115,58.79498252,0
688.4959278,687.5,984.375,75.34504007,75.34504333,25.92067989,58.49858357,0.109434261,88.77173071,0.128935738,11.3686328,4607.241631,1129.937669,175,1050.142399,688.4959278,88.70883894,1359.375,984.375,694.1872231,93.75,296.875,562.5,859.375,0.330728568,-50.5984375,-91,-97149,1.974307749,27,-66,1,0.323139304,-20.88020833,-82,29,-40090,-55,3,117,58.77031561,0
688.7259272,687.5,984.375,72.78394254,72.78394596,25.39229672,58.34522111,0.105679114,88.6143265,0.128664136,11.33503159,4728.776403,1107.860854,173,1161.156205,688.7259272,88.55109829,1359.375,984.375,694.3952044,93.75,296.875,562.5,859.375,0.332325449,-51.5828125,-91,-99039,2.152240059,16,-66,0,0.321852615,-19.76145833,-82,29,-37942,-55,5,122,58.7605305,0
688.9550501,687.5,984.375,73.19927,73.19927343,25.35816619,58.45272206,0.106246806,88.75405359,0.128824157,11.35416192,4725.428046,1103.159362,174,1163.343951,688.9550501,88.6904534,1359.375,984.375,694.6402361,93.75,296.875,562.5,859.375,0.331297942,-52.659375,-91,-101106,2.2931275,16,-66,-12.95,0.320254088,-18.66041667,-82,29,-35828,-55,7,123,58.72776172,0
689.073741,687.5,984.375,72.52293816,72.52294166,25.32374101,58.27338129,0.105246997,88.83883205,0.128925,11.36215639,4776.645025,1108.047034,172,1204.216653,689.073741,88.77489621,1359.375,984.375,694.7687405,93.75,296.875,562.5,859.375,0.331224227,-53.70364583,-91,-103111,2.292655775,16,-66,-26.95,0.318738229,-17.76197917,-82,29,-34103,-50,7,124,58.72776172,0
689.148302,687.5,984.375,72.66075054,72.66075406,25,58.23699422,0.105435585,88.96070524,0.129087897,11.37747414,4792.940295,1111.77813,172,1222.468061,689.148302,88.89640403,1359.375,984.375,694.858225,93.75,296.875,562.5,859.375,0.332474455,-54.3515625,-91,-104355,2.08624917,5,-66,-32,0.318277201,-17.34947917,-82,29,-33311,-43,7,124,58.62465325,0
689.6286232,687.5,984.375,72.93151018,72.93151371,25.07246377,58.11594203,0.105754766,89.1888971,0.129328879,11.40249576,4783.264347,1172.068504,172,1180.519276,689.6286232,89.12424403,1359.375,984.375,695.3637672,93.75,296.875,562.5,859.375,0.332432229,-54.70364583,-91,-105031,2.049183754,3,-66,-33.95,0.297494646,-16.87135417,-73,29,-32393,-40,7,120,58.77031561,0
689.4985465,687.5,984.375,72.96944216,72.9694457,25.14534884,58.13953488,0.105829731,89.18633614,0.129349564,11.40494113,4797.05857,1129.466243,171,1224.149465,689.4985465,89.12149692,1359.375,984.375,695.2344114,93.75,296.875,562.5,859.375,0.333169506,-55.54114583,-91,-106639,1.14234366,0,-66,-37,0.296381242,-16.18020833,-67,29,-31066,-35,7,119,58.79498252,0
689.0327599,687.5,984.375,72.9671034,72.967107,25.03660322,57.83308931,0.105897878,88.65611129,0.128667484,11.37831383,4762.281536,1093.771929,169,1213.878048,689.0327599,88.59118553,1359.375,984.375,694.704644,93.75,296.875,562.5,859.375,0.33288279,-55.59166667,-91,-106736,1.196179674,0,-66,-37,0.297194166,-15.34270833,-52,29,-29458,-34,8,117,58.72776172,0
689.159292,687.5,984.375,73.00919812,73.00920176,25.07374631,57.66961652,0.105939516,88.08663747,0.127817529,11.29788384,4688.036001,1044.468438,168,1200.905961,689.159292,88.02165285,1359.375,984.375,694.7577572,93.75,296.875,562.5,859.375,0.331571634,-55.440625,-91,-106446,1.511842373,2,-66,-36,0.318909409,-14.9203125,-50,29,-28647,-33,8,108,58.54827056,0
689.7916667,687.5,984.375,73.40380001,73.40380367,25.18518519,57.62962963,0.106414454,87.91266879,0.127448146,11.26134699,4669.602064,1005.978154,167,1259.17401,689.7916667,87.84752415,1359.375,984.375,695.3630209,93.75,296.875,562.5,859.375,0.334291031,-55.4375,-91,-106440,1.510139855,2,-66,-36,0.319830333,-14.79895833,-48,29,-28414,-32,8,101,58.62465325,0
690.1467311,687.5,984.375,73.58704406,73.58704774,25.26002972,57.94947994,0.106625221,87.80003071,0.127219368,11.23568399,4645.656328,1022.625787,167,1240.105642,690.1467311,87.73477613,1359.375,984.375,695.7010143,93.75,296.875,562.5,859.375,0.334876946,-55.2078125,-91,-105999,1.417247946,2,-66,-36,0.320602701,-14.85104167,-48,29,-28514,-33,8,100,58.59778046,0
690.7087054,687.5,984.375,73.31504288,73.31504658,25,57.44047619,0.106144669,87.46485731,0.126630599,11.17283465,4604.62806,1052.186067,166,1209.145205,690.7087054,87.39975506,1359.375,984.375,696.2163693,93.75,296.875,562.5,859.375,0.333703063,-54.9640625,-91,-105531,1.328831895,2,-66,-36,0.321863909,-15.13958333,-48,29,-29068,-34,8,97,58.59778046,0
690.8764903,687.5,984.375,73.36476855,73.36477226,25.03725782,57.52608048,0.106190865,87.48431148,0.126628005,11.17698271,4609.502742,1072.175748,165,1194.552217,690.8764903,87.41909767,1359.375,984.375,696.3852551,93.75,296.875,562.5,859.375,0.33362787,-55.09479167,-91,-105782,1.328660553,2,-66,-38,0.321421863,-15.60833333,-48,29,-29968,-35,8,97,58.62465325,0
690.936107,687.5,984.375,73.39424571,73.39424939,25.11144131,57.3551263,0.106224365,87.36190423,0.126439917,11.1619637,4597.452489,1076.215289,165,1191.78713,690.936107,87.29697527,1359.375,984.375,696.4290817,93.75,296.875,562.5,859.375,0.33313335,-55.08958333,-91,-105772,1.317165147,2,-66,-38,0.320119502,-15.97760417,-48,29,-30677,-35,8,97,58.62465325,0
690.652819,687.5,984.375,73.49781091,73.49781457,25.22255193,57.41839763,0.106417888,87.05375577,0.12604561,11.13234961,4576.274764,1058.692547,165,1214.369181,690.652819,86.98915186,1359.375,984.375,696.1094949,93.75,286.71875,562.5,849.21875,0.334026271,-54.92708333,-91,-105460,1.259271054,2,-66,-38,0.321013888,-16.03958333,-48,29,-30796,-35,8,92,58.67452493,0
689.8182493,687.5,984.375,73.31990965,73.31991333,24.92581602,57.27002967,0.106288741,86.72937623,0.125727866,11.10488421,4546.536476,1057.556938,164,1216.987638,689.8182493,86.66501305,1359.375,984.375,695.2409953,93.75,281.25,562.5,843.75,0.334083013,-54.8859375,-91,-105381,1.243264942,2,-66,-38,0.321454232,-15.965625,-48,29,-30654,-35,8,80,58.67452493,0
688.7268519,687.5,984.375,75.06767808,75.06768166,24.74074074,56.88888889,0.108994853,86.65179466,0.125814457,11.10239555,4563.301615,1021.489293,164,1230.116589,688.7268519,86.58758436,1359.375,984.375,694.1484612,93.75,281.25,562.5,843.75,0.332013593,-54.8859375,-91,-105381,1.241221817,2,-66,-38,0.321639315,-15.95416667,-48,29,-30632,-35,8,87,58.67452493,0
688.6556953,687.5,984.375,74.64954414,74.64954773,24.70414201,56.50887574,0.10839894,86.61987455,0.125781105,11.10048269,4572.781376,1040.957123,163,1235.622632,688.6556953,86.55578289,1359.375,984.375,694.0738939,93.75,281.25,562.5,843.75,0.331474525,-54.8671875,-91,-105345,1.254516263,2,-66,-38,0.321448866,-16.04739583,-48,29,-30811,-35,8,89,58.7605305,0
688.5385894,687.5,984.375,73.84494125,73.84494487,24.37223043,56.4254062,0.107248811,86.58854567,0.125756998,11.09681424,4565.485905,1079.786225,164,1183.153542,688.5385894,86.52457185,1359.375,984.375,693.9538101,93.75,281.25,562.5,843.75,0.330349099,-54.97864583,-91,-105559,1.266073244,2,-66,-38,0.323037907,-16.21614583,-48,29,-31135,-35,8,87,58.83026432,0
688.7232275,687.5,984.375,72.87014519,72.87014885,24.51994092,56.57311669,0.105804692,86.6528416,0.125816639,11.10529189,4570.334028,1110.200156,164,1167.556701,688.7232275,86.58882029,1359.375,984.375,694.1450193,93.75,281.25,562.5,843.75,0.330480297,-55.25572917,-91,-106091,1.266437088,2,-67,-39,0.32699212,-16.10416667,-48,29,-30920,-34,8,95,58.72563219,0
689.0440634,687.5,984.375,72.00953579,72.00953948,24.48377581,56.63716814,0.104506436,86.79167334,0.12595954,11.10555166,4564.829635,1146.41604,164,1136.813268,689.0440634,86.72764406,1359.375,984.375,694.4806733,93.75,283.59375,562.5,846.09375,0.332356769,-55.41666667,-91,-106400,1.256074935,2,-67,-39,0.330365151,-16.1171875,-48,29,-30945,-34,8,100,58.53161536,0
689.3436578,687.5,984.375,72.1796058,72.17960949,24.48377581,56.78466077,0.10470773,86.84189597,0.125977653,11.10437763,4562.115169,1151.615313,164,1123.676245,689.3436578,86.77782964,1359.375,984.375,694.7841897,93.75,283.59375,562.5,846.09375,0.324769354,-55.8078125,-91,-107151,1.261113504,2,-67,-40,0.329281912,-15.96927083,-43,29,-30661,-34,8,101,58.47093268,0
689.2233456,687.5,984.375,71.65795766,71.65796135,24.41176471,56.47058824,0.103969144,87.00815426,0.126240869,11.13826808,4598.949247,1164.541413,164,1126.019828,689.2233456,86.94415414,1359.375,984.375,694.6856167,93.75,282.03125,562.5,844.53125,0.325910311,-55.81927083,-91,-107173,1.311128241,2,-67,-40,0.325535124,-15.98177083,-43,29,-30685,-34,8,108,58.47221562,0
689.4071691,687.5,984.375,71.82835731,71.828361,24.26470588,56.47058824,0.10418859,87.02084247,0.126225613,11.13377797,4593.720963,1149.586756,165,1121.132856,689.4071691,86.95683301,1359.375,984.375,694.8695817,93.75,282.03125,562.5,844.53125,0.323484962,-55.8609375,-91,-107253,1.323635151,2,-67,-40,0.324704206,-15.90104167,-43,29,-30530,-34,8,111,58.47221562,0
689.2437592,687.5,984.375,73.09889114,73.09889476,24.22907489,56.3876652,0.106056665,86.94578611,0.126146643,11.12286947,4591.874154,1126.139822,166,1131.725022,689.2437592,86.88192581,1359.375,984.375,694.6980845,93.75,281.25,562.5,843.75,0.321928257,-55.73125,-91,-107004,1.278837666,2,-67,-40,0.325485949,-15.76302083,-43,29,-30265,-34,8,111,58.49658083,0
689.0076754,687.5,984.375,73.42174855,73.42175211,23.97660819,56.28654971,0.106561588,86.87426509,0.126086063,11.11448421,4601.537316,1095.782333,165,1176.276808,689.0076754,86.81073728,1359.375,984.375,694.4549524,93.75,281.25,562.5,843.75,0.326323861,-55.628125,-91,-106806,1.212762891,2,-67,-40,0.33145233,-15.534375,-43,29,-29826,-34,8,111,58.24945147,0
689.1854956,687.5,984.375,73.42621181,73.42621535,24.19825073,56.26822157,0.10654057,87.21525924,0.126548309,11.14915575,4596.614754,1109.54674,166,1147.054084,689.1854956,87.15166808,1359.375,984.375,694.6740679,93.75,292.96875,562.5,855.46875,0.325987035,-55.71145833,-91,-106966,1.207125876,2,-68,-40,0.335998694,-15.36770833,-43,29,-29506,-34,8,112,58.08485145,0
689.2967613,687.5,984.375,72.72470428,72.72470785,24.16302766,56.33187773,0.105505657,87.59950231,0.127085324,11.18303207,4638.862909,1153.681743,167,1107.903619,689.2967613,87.535724,1359.375,984.375,694.8327339,93.75,296.875,562.5,859.375,0.325244287,-55.7,-91,-106944,1.203563166,2,-68,-40,0.336627691,-15.296875,-43,29,-29370,-34,8,112,58.08485145,0
688.3667883,687.5,656.25,63.18441094,63.18441507,24.37956204,56.49635036,0.091788878,84.10054073,0.122174024,11.08360265,4409.308632,1107.938573,167,903.3085596,688.3667883,84.03913105,1031.25,656.25,693.4777652,93.75,296.875,562.5,859.375,0.303769858,-55.7015625,-91,-106947,1.206333313,2,-68,-40,0.33632648,-15.23489583,-43,29,-29251,-34,8,112,58.08485145,0
688.3667883,687.5,656.25,63.195708,63.19571212,24.08759124,56.35036496,0.091805289,84.76003387,0.123132079,11.1541482,4479.781227,1129.529345,166,929.7941641,688.3667883,84.69814264,1031.25,656.25,693.557936,93.75,296.875,562.5,859.375,0.306752396,-55.70260417,-91,-106949,1.208008932,2,-68,-40,0.335939737,-15.18020833,-43,29,-29146,-34,8,112,58.08485145,0
688.1823144,687.5,656.25,62.58819437,62.58819852,24.16302766,56.62299854,0.090947119,85.05332567,0.123591269,11.20592112,4518.382105,1158.981748,167,923.9815388,688.1823144,84.99140114,1031.25,656.25,693.4107269,93.75,296.875,562.5,859.375,0.307696445,-55.634375,-91,-106818,1.19031768,2,-68,-40,0.337558121,-15.096875,-44,29,-28986,-34,8,111,58.05902142,0
688.3693265,687.5,656.25,62.51431326,62.51431746,24.15812592,56.51537335,0.090815083,85.43907421,0.124118073,11.25488554,4578.955112,1208.711612,168,905.5840972,688.3693265,85.37650439,1031.25,656.25,693.643624,93.75,296.875,562.5,859.375,0.306790803,-55.49427083,-91,-106549,1.203994975,2,-67,-40,0.335882812,-15.23854167,-44,29,-29258,-34,8,98,58.41746123,0
688.3706012,687.5,656.25,62.89738792,62.89739211,24.34017595,56.30498534,0.09137141,85.97844084,0.124901384,11.31572309,4618.769017,1238.315587,168,884.3285462,688.3706012,85.91538367,1031.25,656.25,693.7114225,93.75,296.875,562.5,859.375,0.305283166,-55.42083333,-91,-106408,1.18492511,2,-67,-40,0.339507383,-15.51458333,-44,29,-29788,-34,8,95,58.05902142,0
688.9225404,687.5,656.25,62.943619,62.9436232,24.66960352,56.68135095,0.091365313,86.85662265,0.126076035,11.39161478,4697.904155,1256.048706,167,909.2948599,688.9225404,86.79282784,1031.25,656.25,694.3682464,93.75,296.875,562.5,859.375,0.307542983,-55.365625,-91,-106302,1.175896702,2,-67,-40,0.340211998,-15.62760417,-44,29,-30005,-34,8,96,58.05902142,0
689.5510693,687.5,656.25,63.3111783,63.3111825,24.48377581,56.78466077,0.091815074,87.28665828,0.126584762,11.43418803,4737.401897,1258.843364,166,918.7946326,689.5510693,87.22226384,1031.25,656.25,695.0456104,93.75,296.875,562.5,859.375,0.306420782,-55.29166667,-91,-106160,1.161539742,2,-67,-40,0.340972823,-15.4984375,-44,29,-29757,-34,8,98,58.24816,0
689.9305556,687.5,656.25,63.72534939,63.72535361,24.44444444,56.74074074,0.092364881,87.61175656,0.126986341,11.47416007,4755.568458,1262.593376,167,920.9206001,689.9305556,87.54683491,1031.25,656.25,695.4628817,93.75,296.875,562.5,859.375,0.307017197,-55.47239583,-91,-106507,1.216343674,2,-67,-40,0.339600304,-15.41145833,-44,29,-29590,-34,8,98,58.24816,0
690.1041667,687.5,656.25,63.52491453,63.5249188,24.25595238,56.69642857,0.092051203,87.92885555,0.127413889,11.51206045,4797.882225,1266.757136,165,918.2149081,690.1041667,87.86340793,1031.25,656.25,695.6750242,93.75,296.875,562.5,859.375,0.306521355,-55.55260417,-91,-106661,1.234604923,2,-67,-40,0.338565314,-15.1140625,-44,29,-29019,-34,8,97,58.24816,0
690.1971726,687.5,656.25,62.44466659,62.44467093,24.10714286,56.54761905,0.09047367,87.95914609,0.127440606,11.51650121,4807.494742,1247.531236,165,904.0621927,690.1971726,87.89367594,1031.25,656.25,695.7711085,93.75,296.875,562.5,859.375,0.306467814,-55.69010417,-91,-106925,1.265179723,2,-67,-40,0.337370539,-14.79010417,-44,29,-28397,-34,8,97,58.34766128,0
689.0811012,687.5,687.5,62.54030395,62.54073747,24.55357143,56.99404762,0.090759618,90.40930446,0.131202705,12.53001737,5385.3163,1501.43067,164,1074.443505,689.0811012,90.34201058,1031.25,687.5,694.9780161,93.75,296.875,562.5,859.375,0.308827273,-55.70416667,-91,-106952,1.27012122,2,-67,-40,0.336974176,-14.8328125,-44,29,-28479,-34,8,95,58.44527328,0
689.0113467,687.5,687.5,62.97512612,62.97555664,24.4047619,57.14285714,0.091399883,90.58539045,0.131471551,12.55343511,5392.237024,1473.601817,166,1085.369889,689.0113467,90.51796551,1031.25,687.5,694.9317506,93.75,296.875,562.5,859.375,0.306627373,-55.68854167,-91,-106922,1.302915268,2,-67,-40,0.334661987,-14.74895833,-44,29,-28318,-34,8,87,58.52221774,0
689.1276042,687.5,687.5,62.85946764,62.85989895,24.4047619,57.14285714,0.091216632,90.77797392,0.131728831,12.57453789,5393.236341,1403.233771,166,1122.833638,689.1276042,90.71040563,1031.25,687.5,695.072106,93.75,296.875,562.5,859.375,0.30721842,-55.56354167,-91,-106682,1.275398734,2,-67,-40,0.335101655,-14.53125,-44,29,-27900,-34,8,87,58.52221774,0
688.8485863,687.5,687.5,62.58682892,62.58726211,24.4047619,57.14285714,0.090857793,91.01071713,0.132120061,12.60786027,5440.303392,1374.262994,166,1173.094383,688.8485863,90.94297562,1031.25,687.5,694.8258772,93.75,296.875,562.5,859.375,0.309828445,-55.45104167,-91,-106466,1.245164864,2,-67,-40,0.336240119,-14.26354167,-44,29,-27386,-34,8,87,58.44527328,0
688.7574516,687.5,687.5,62.99897237,62.99940402,24.29210134,57.07898659,0.0914682,91.17190197,0.132371565,12.62816332,5426.85219,1360.17151,167,1143.142199,688.7574516,91.10393931,1031.25,687.5,694.7566155,93.75,296.875,562.5,859.375,0.307236223,-55.31145833,-91,-106198,1.20400075,2,-67,-40,0.337440219,-13.89583333,-44,29,-26680,-34,8,87,58.35066361,0
688.6177347,687.5,687.5,62.11357554,62.11401334,24.44113264,57.22801788,0.090201007,91.20169683,0.13244169,12.6365567,5437.270277,1351.567443,167,1126.835426,688.6177347,91.13371195,1031.25,687.5,694.6220109,101.5625,296.875,562.5,859.375,0.30607586,-55.15729167,-91,-105902,1.154480353,2,-67,-40,0.338697324,-13.50885417,-44,29,-25937,-34,8,87,58.35066361,0
689.2464605,687.5,796.875,63.09144925,63.09188026,24.29210134,57.07898659,0.091537474,92.84901512,0.134710906,12.71161219,5582.305739,1444.19289,167,1221.337245,689.2464605,92.77980228,1140.625,796.875,695.4629933,101.5625,296.875,562.5,859.375,0.324151186,-55.0359375,-91,-105669,1.124362935,2,-67,-40,0.341208262,-13.20052083,-44,29,-25345,-34,8,87,58.01723882,0
690.4428251,687.5,953.125,65.4530487,65.45346665,24.36472347,57.39910314,0.094799257,95.84018537,0.138809735,12.83028768,5769.856466,1720.866397,168,1153.938187,690.4428251,95.76852914,1296.875,953.125,697.0530151,93.75,296.875,562.5,859.375,0.347213407,-54.990625,-91,-105582,1.118713048,2,-67,-40,0.341582572,-12.97864583,-44,29,-24919,-34,8,87,57.98275606,0
691.3418291,687.5,953.125,65.61544264,65.61595015,24.43778111,57.42128936,0.094911008,95.45818538,0.138076681,12.74984079,5701.824918,1664.109847,168,1210.700143,691.3418291,95.38660068,1296.875,953.125,697.8912009,93.75,296.875,562.5,859.375,0.347524998,-55.021875,-91,-105642,1.11801798,2,-67,-40,0.341417984,-12.84166667,-44,29,-24656,-34,8,87,57.98275606,0
692.637632,687.5,953.125,65.86089118,65.86150019,24.43438914,57.61689291,0.095087961,94.51459937,0.136456056,12.45503211,5491.998466,1629.008348,167,1074.323364,692.637632,94.44329449,1296.875,953.125,699.0467975,93.75,296.875,562.5,859.375,0.340536421,-54.95416667,-91,-105512,1.098006368,2,-67,-40,0.340927238,-12.81822917,-44,29,-24611,-34,8,85,57.98103089,0
693.9532905,687.5,953.125,61.49117303,61.49162876,24.50832073,57.48865356,0.088610616,93.27183953,0.134406509,12.06155234,5351.345457,1657.050556,166,965.5979953,693.9532905,93.20125924,1296.875,953.125,700.1840073,93.75,296.875,562.5,859.375,0.329991736,-54.83645833,-91,-105286,1.091560695,2,-67,-40,0.340530683,-12.89270833,-44,29,-24754,-34,8,82,58.01551468,0
693.6131042,687.5,953.125,61.20955936,61.21021663,24.7734139,57.70392749,0.088248357,94.45193361,0.136173802,12.50406382,5720.782804,1877.664551,166,975.4638875,693.6131042,94.38056833,1296.875,953.125,700.0048786,93.75,296.875,562.5,859.375,0.329082085,-54.73697917,-91,-105095,1.043699273,2,-67,-40,0.346455708,-13.01145833,-44,29,-24982,-34,8,82,57.71394966,0
694.3447885,687.5,953.125,62.10214634,62.10279417,25.2265861,58.0060423,0.089440859,94.39969799,0.135955075,12.48011658,5657.362998,1832.473713,167,999.0356309,694.3447885,94.32837218,1296.875,953.125,700.7228604,93.75,296.875,562.5,859.375,0.329572361,-54.57708333,-91,-104788,1.001357051,2,-67,-40,0.350498605,-13.1328125,-44,29,-25215,-34,8,82,57.6020833,0
694.4864048,687.5,953.125,62.96059321,62.96219513,25.3776435,58.1570997,0.090660083,94.36191175,0.135872943,12.46889085,5671.052271,1780.224434,167,1083.312967,694.4864048,94.29061449,1296.875,953.125,700.8581072,93.75,296.875,562.5,859.375,0.33327133,-54.6921875,-91,-105009,1.031389849,2,-67,-40,0.351024184,-13.25520833,-44,29,-25450,-34,8,82,57.6020833,0
694.1896747,687.5,953.125,62.04481481,62.04557812,25.11346445,57.63993949,0.089378423,94.26907399,0.135797286,12.46281926,5650.563223,1765.340847,167,1059.753207,694.1896747,94.19773908,1296.875,953.125,700.5515817,93.75,296.875,562.5,859.375,0.328845531,-54.78072917,-91,-105179,1.050756041,2,-67,-40,0.348642634,-13.4734375,-44,29,-25869,-34,8,82,57.6020833,0
694.7679924,687.5,953.125,61.59842044,61.5984387,25,57.42424242,0.088660444,94.12111691,0.135471291,12.43027723,5565.002687,1744.312575,167,1010.138975,694.7679924,94.049786,1296.875,953.125,701.1047893,93.75,296.875,562.5,859.375,0.327074875,-54.81041667,-91,-105236,1.058886813,2,-67,-40,0.350068356,-13.83333333,-44,29,-26560,-34,8,82,57.56387557,0
694.7460347,687.5,953.125,62.54724112,62.54725899,25.2265861,57.55287009,0.090028954,94.46554244,0.13597133,12.49215033,5594.926672,1728.943341,168,1049.071186,694.7460347,94.39416688,1296.875,953.125,701.1293116,93.75,296.875,562.5,859.375,0.330773061,-54.76927083,-91,-105157,1.042759269,2,-67,-40,0.353577476,-14.25677083,-44,29,-27373,-34,8,82,57.56517967,0
695.5363876,687.5,953.125,62.77082667,62.77084442,25.03770739,57.91855204,0.09024811,94.91039372,0.136456403,12.53228074,5623.547383,1780.015343,168,1046.233462,695.5363876,94.83879025,1296.875,953.125,701.9724088,93.75,296.875,562.5,859.375,0.332069675,-54.77864583,-91,-105175,1.048592497,2,-67,-40,0.35242447,-14.325,-44,29,-27504,-34,8,83,57.61857327,0
696.2640977,687.5,953.125,62.67622105,62.67623872,25.11278195,57.89473684,0.09001791,94.98082803,0.136414944,12.53574115,5649.80673,1809.946797,168,1071.297243,696.2640977,94.90938701,1296.875,953.125,702.7029853,93.75,309.375,562.5,871.875,0.333248828,-54.40416667,-91,-104456,1.388419412,2,-67,-39,0.353996148,-14.31666667,-44,29,-27488,-34,8,83,57.71394966,0
696.7105263,687.5,953.125,63.09135821,63.09137577,24.96240602,57.7443609,0.090556082,95.20343277,0.136647042,12.55885669,5644.352002,1823.069199,170,1064.660247,696.7105263,95.13182431,1296.875,953.125,703.1753846,93.75,309.375,562.5,871.875,0.332737514,-54.00989583,-91,-103699,1.531240771,2,-67,-38,0.355456711,-14.440625,-44,29,-27726,-34,8,83,57.71394966,0
697.0159774,687.5,953.125,63.33565142,63.33566891,24.66165414,57.44360902,0.090866882,95.41449142,0.136889963,12.57900918,5663.2739,1837.850202,170,1072.152227,697.0159774,95.34272421,1296.875,953.125,703.5065798,93.75,309.375,562.5,871.875,0.332221602,-53.87864583,-91,-103447,1.534261291,2,-66.05,-38,0.348105663,-14.6328125,-44,25,-28095,-34.05,8,78,57.60164925,0
697.0016892,687.5,953.125,62.91565843,62.91567598,24.47447447,57.05705706,0.090266174,95.28566085,0.136707934,12.56688791,5687.120142,1852.624599,169,1095.170289,697.0016892,95.21409819,1296.875,953.125,703.4750026,93.75,308.59375,562.5,871.09375,0.332399501,-53.39322917,-91,-102515,1.463711627,2,-66,-34,0.349291528,-15.003125,-44,25,-28806,-34.05,7,70,57.61857327,0
696.8984962,687.5,953.125,64.01701035,64.01702765,24.66165414,57.44360902,0.091859902,95.38183232,0.136866176,12.58219963,5666.564288,1874.140673,170,1052.578486,696.8984962,95.31008967,1296.875,953.125,703.3857599,93.75,309.375,562.5,871.875,0.332170883,-52.85520833,-91,-101482,1.377598809,2,-65.05,-32.95,0.35041741,-15.34427083,-44,25,-29461,-34.05,4.05,68,57.52260397,0
696.9547673,687.5,953.125,64.07208112,64.07209835,24.62462462,57.35735736,0.091931502,95.29804032,0.1367349,12.57258408,5654.132493,1872.206001,171,1048.315823,696.9547673,95.22646837,1296.875,953.125,703.4301869,93.75,308.59375,562.5,871.09375,0.331685746,-52.26875,-91,-100356,1.306943565,2,-65,-30,0.352847605,-15.67708333,-44,25,-30100,-34.05,2,63,57.28568602,0
696.8515038,687.5,953.125,63.94230126,63.94231858,24.81203008,57.14285714,0.091758887,95.36332729,0.136848851,12.58057262,5655.242886,1870.064159,171,1039.516359,696.8515038,95.29159857,1296.875,953.125,703.3366954,93.75,309.375,562.5,871.875,0.332136835,-51.77604167,-91,-99410,1.225341621,2,-65,-28,0.355338584,-15.9875,-44,25,-30696,-34.05,1,62,57.19877507,0
696.823074,687.5,953.125,64.33458267,64.33460004,24.6223565,56.79758308,0.092325588,95.57468614,0.137157752,12.60759335,5637.644205,1870.909354,169,1005.991401,696.823074,95.50247254,1296.875,953.125,703.3371302,93.75,311.71875,562.5,874.21875,0.330405399,-51.6359375,-91,-99141,1.202894842,2,-65,-28,0.355733806,-16.3046875,-44,25,-31305,-34.05,0,61,57.19877507,0
696.9790091,687.5,953.125,65.08047089,65.08048812,24.50832073,56.88350983,0.093375105,95.56275112,0.137109941,12.60649843,5591.880535,1881.690377,170,947.1800805,696.9790091,95.49043727,1296.875,953.125,703.4899876,93.75,312.5,562.5,875,0.329273951,-51.978125,-91,-99798,1.277995127,2,-65,-28,0.353935047,-16.1609375,-44,25,-31029,-34.05,0,63,57.22630485,0
696.3945967,687.5,953.125,63.81405474,63.81407252,24.20091324,56.62100457,0.091634933,95.51014355,0.137149461,12.61078644,5627.458828,1856.823422,168,972.8061384,696.3945967,95.4374293,1296.875,953.125,702.9037894,93.75,300,562.5,862.5,0.327522834,-52.16927083,-91,-100165,1.296186723,2,-65,-28,0.353022277,-16.00833333,-44,25,-30736,-34.05,0,70,57.22630485,0
696.4523176,687.5,953.125,63.43828701,63.43830485,24.31610942,56.99088146,0.091087793,95.51896538,0.137150761,12.60797352,5633.811,1862.788337,168,971.199795,696.4523176,95.44635498,1296.875,953.125,702.9621878,93.75,299.21875,562.5,861.71875,0.327384974,-52.24895833,-91,-100318,1.305241671,2,-65,-28,0.35152621,-15.93854167,-44,25,-30602,-34.05,0,70,57.22630485,0
696.3366997,687.5,953.125,63.28229959,63.28231757,24.23780488,56.70731707,0.090878906,95.55198335,0.13722095,12.61562867,5626.390856,1842.543278,168,966.4165007,696.3366997,95.47912632,1296.875,953.125,702.8520918,93.75,300.78125,562.5,863.28125,0.326936737,-52.56302083,-91,-100921,1.339270703,2,-65,-29,0.348309376,-16.29739583,-44,25,-31291,-34.05,-1.95,68,57.56517967,0
696.254771,687.5,953.125,63.8180317,63.81804959,24.42748092,56.79389313,0.091659048,95.56289008,0.137252762,12.61725689,5639.358817,1836.522228,168,983.9167206,696.254771,95.48991345,1296.875,953.125,702.7723883,93.75,301.5625,562.5,864.0625,0.326608256,-52.92552083,-83,-101617,1.303957728,0,-65,-30,0.327627589,-16.27135417,-44,25,-31241,-34.05,-2,74,57.66064438,0
695.9814602,687.5,953.125,64.38572112,64.38579226,24.617737,56.72782875,0.092510786,95.98125887,0.137907781,12.71668474,5716.31939,1910.597073,167,913.3952065,695.9814602,95.90785063,1296.875,953.125,702.5585448,93.75,302.34375,562.5,864.84375,0.327980301,-53.12604167,-83,-102002,1.341279628,0,-65,-30,0.325385523,-16.0546875,-44,25,-30825,-34,-2,81,57.71394966,0
695.1213685,687.5,953.125,63.79659182,63.79660977,24.617737,56.72782875,0.091777656,97.1872633,0.139813373,13.15318379,5997.70433,2052.618928,166,851.1177704,695.1213685,97.11293268,1296.875,953.125,701.8722381,93.75,302.34375,562.5,864.84375,0.328689206,-53.41822917,-83,-102563,1.427430171,0,-65,-30,0.324524848,-15.91822917,-44,25,-30563,-32,-2,81,57.71394966,0
695.0249233,687.5,953.125,63.67697543,63.67699353,24.38650307,56.74846626,0.091618288,97.19643407,0.139845969,13.1589077,6005.213233,2067.965165,165,826.2752544,695.0249233,97.12186832,1296.875,953.125,701.7779573,93.75,303.90625,562.5,866.40625,0.327723262,-53.590625,-83,-102894,1.483006376,0,-65,-30,0.323998499,-15.6671875,-44,25,-30081,-31,-2,81,57.71394966,0
694.6875,687.5,953.125,62.96172929,62.9617477,24.61538462,56.76923077,0.090633195,97.0803948,0.139746857,13.15331333,6012.368456,2051.394146,165,848.672402,694.6875,97.00568883,1296.875,953.125,701.4277057,93.75,305.46875,562.5,867.96875,0.328340443,-53.64375,-83,-102996,1.504943892,0,-65,-30,0.323783402,-15.42135417,-44,25,-29609,-29.05,-2,81,57.71394966,0
694.4551777,687.5,953.125,62.19082842,62.19084724,24.72952087,57.0324575,0.089553436,97.20907129,0.139978899,13.17491493,6055.884292,2036.836448,163,883.7856569,694.4551777,97.13391931,1296.875,953.125,701.2153679,93.75,307.8125,562.5,870.3125,0.327915312,-53.62760417,-83,-102965,1.498095996,0,-65,-30,0.32385775,-15.221875,-44,25,-29226,-29,-2,81,57.71394966,0
694.4741446,687.5,953.125,64.34081425,64.34083266,25.03888025,56.92068429,0.092646837,97.39260344,0.140239351,13.20962972,6026.828279,2065.344209,163,858.2289085,694.4741446,97.316841,1296.875,953.125,701.2595134,93.75,310.9375,562.5,873.4375,0.328760486,-53.72760417,-83,-103157,1.532598211,0,-65,-30,0.323259295,-14.96770833,-44,25,-28738,-28,-2,81,57.71394966,0
693.9511381,687.5,953.125,64.52472203,64.52474074,25.1177394,56.8288854,0.092981677,97.13730916,0.13997716,13.22195938,6040.98641,2073.085401,162,858.7705626,693.9511381,97.06103329,1296.875,953.125,700.7060913,93.75,300,562.5,862.5,0.329936087,-53.73854167,-83,-103178,1.54091248,0,-65,-30,0.322709228,-14.77708333,-44,25,-28372,-27,-2,80,57.71394966,0
693.4394716,687.5,953.125,64.70725281,64.70727164,25.23659306,56.62460568,0.093313511,96.77316379,0.139555315,13.20873299,6030.830573,2072.268726,160,852.9179024,693.4394716,96.69681414,1296.875,953.125,700.148966,93.75,296.875,562.5,859.375,0.328685129,-53.66145833,-83,-103030,1.535197185,0,-65,-30,0.322674594,-14.640625,-44,25,-28110,-27,-2,71,57.71394966,0
693.138911,687.5,953.125,65.23902655,65.23904553,25.11923688,56.59777424,0.09412117,96.34535745,0.138998628,13.20339646,5985.866716,2085.000807,157,799.9738602,693.138911,96.26874085,1296.875,953.125,699.7922694,93.75,296.875,562.5,859.375,0.32594241,-53.56770833,-83,-102850,1.5360786,0,-65,-30,0.321865979,-14.5703125,-44,25,-27975,-27,-2,64,57.71481612,0
692.4078526,687.5,953.125,64.6451489,64.64516836,24.83974359,56.73076923,0.093362847,95.67077424,0.138171128,13.16720941,5927.988553,2043.249719,157,802.9511371,692.4078526,95.59408422,1296.875,953.125,698.9755813,93.75,296.875,562.5,859.375,0.32533141,-53.559375,-83,-102834,1.560095518,0,-65,-30,0.316634877,-14.49270833,-44,25,-27826,-27,-2,64,57.76460777,0
691.7887239,687.5,953.125,64.2771162,64.27713583,24.87961477,56.50080257,0.092914402,95.0928417,0.137459369,13.12822862,5860.842038,1970.880688,157,807.4873939,691.7887239,95.01649256,1296.875,953.125,698.283447,93.75,296.875,562.5,859.375,0.322840248,-53.3359375,-83,-102405,1.564763404,0,-65,-30,0.309715539,-14.65989583,-44,25,-28147,-28,-2,55,57.91286546,0
691.9102823,687.5,953.125,65.15099684,65.1510164,24.67741935,56.29032258,0.094161076,96.0105525,0.138761563,13.18602323,5922.435245,1978.671119,156,846.2986135,691.9102823,95.93309339,1296.875,953.125,698.529167,93.75,296.875,562.5,859.375,0.327523473,-53.20260417,-83,-102149,1.579723706,0,-64,-30,0.305889518,-14.8921875,-44,25,-28593,-29,-2,53,58.04093307,0
692.1698304,687.5,953.125,66.75915993,66.76038556,24.39418417,56.05815832,0.096450875,97.15147498,0.140357858,13.24764825,6011.836065,2019.138554,156,913.6217839,692.1698304,97.07296873,1296.875,953.125,698.9436568,93.75,296.875,562.5,859.375,0.334998029,-53.14947917,-83,-102047,1.57810277,0,-64,-30,0.306996702,-15.02864583,-44,25,-28855,-30,-1.95,51,58.04179501,0
691.4947411,687.5,953.125,66.94340025,66.94462647,24.43365696,56.14886731,0.096811476,96.9487493,0.140201716,13.23321747,5971.178858,2026.880045,156,868.5038789,691.4947411,96.87028004,1296.875,953.125,698.2469679,93.75,296.875,562.5,859.375,0.334780844,-53.0140625,-83,-101787,1.545750981,0,-64,-30,0.308066037,-14.75677083,-44,25,-28333,-30,-1,38,58.05945217,0
690.8591205,687.5,953.125,65.6136574,65.61492485,23.94136808,55.70032573,0.094975839,96.82545187,0.140152238,13.2325957,5981.469578,2048.19412,154,845.7729459,690.8591205,96.74657165,1296.875,953.125,697.6003322,93.75,296.875,562.5,859.375,0.335156805,-53.00833333,-83,-101776,1.541404479,0,-64,-30,0.308144386,-14.30520833,-44,25,-27466,-30,1,34,58.04179501,0
690.6454583,687.5,953.125,65.92674435,65.92801822,24.0589198,55.8101473,0.095458556,96.93661891,0.140356557,13.25079053,6012.112499,2052.917045,153,868.5845355,690.6454583,96.85726022,1296.875,953.125,697.4040994,93.75,296.875,562.5,859.375,0.334383694,-52.78020833,-83,-101338,1.481946799,0,-64,-29,0.308659118,-13.9765625,-44,25,-26835,-30,2,34,58.04179501,0
689.9373974,687.5,953.125,65.57131283,65.57260205,23.6453202,55.50082102,0.09504138,96.47347181,0.139829312,13.22222244,5931.435288,2009.370421,153,842.220445,689.9373974,96.3942328,1296.875,953.125,696.6386871,93.75,296.875,562.5,859.375,0.333541209,-52.57135417,-83,-100937,1.4987268,0,-64,-28,0.301377629,-13.8125,-44,13,-26520,-30,3,35,58.24645765,0
689.6587171,687.5,953.125,65.38583847,65.3871356,23.68421053,55.59210526,0.094810859,96.59916392,0.140068068,13.23706053,5972.517234,2035.406659,151,850.9228848,689.6587171,96.51969113,1296.875,953.125,696.3800664,93.75,296.875,562.5,859.375,0.333813906,-52.515625,-120,-100830,1.130663137,1,-64,-28,0.370201228,-13.50572917,-65,46,-25931,-30,4,42,57.91372894,0
689.6004098,687.5,953.125,65.3765739,65.37786271,23.93442623,55.73770492,0.094805429,96.44993767,0.139863516,13.21592214,5941.696939,2043.410936,152,826.8721891,689.6004098,96.37084791,1296.875,953.125,696.3017059,93.75,296.875,562.5,859.375,0.333420243,-52.50104167,-120,-100802,0.988038127,2,-64,-27.95,0.410578109,-13.13645833,-83,51,-25222,-30,6,48,57.71481612,0
689.6551724,687.5,953.125,65.44872179,65.45001341,23.80952381,55.82922824,0.094902519,96.49892723,0.139923444,13.22355643,5945.91522,2046.864761,152,821.1879479,689.6551724,96.41966732,1296.875,953.125,696.3626994,93.75,296.875,562.5,859.375,0.333940082,-51.84947917,-120,-99551,1.185473028,8,-64,-26,0.414349078,-12.81354167,-83,51,-24602,-30,6,48,57.69575325,0
689.5012315,687.5,953.125,65.2890093,65.29030409,23.80952381,55.82922824,0.094692078,96.40233187,0.13981459,13.21302342,5934.618675,2034.237514,151,855.3130301,689.5012315,96.32315129,1296.875,953.125,696.1968815,93.75,296.875,562.5,859.375,0.335603389,-51.09479167,-120,-98102,1.368339421,11,-64,-24,0.418552464,-12.61458333,-83,51,-24220,-30,6,48,57.34805962,0
689.6730132,687.5,953.125,66.57640549,66.57769638,24.17218543,55.9602649,0.096535162,96.78509736,0.140334761,13.25792174,5960.905023,2057.848513,149,896.2097005,689.6730132,96.70494405,1296.875,953.125,696.4199246,93.75,296.875,562.5,859.375,0.340014637,-50.73385417,-120,-97409,1.300386004,11,-64,-22,0.420465843,-13.03229167,-83,51,-25022,-32,6,49,57.31361066,1
689.3656716,687.5,953.125,66.77151762,66.77280903,23.88059701,55.88723051,0.096861233,96.96814882,0.140662863,13.27622045,5954.641547,2075.488708,151,888.8007171,689.3656716,96.88771069,1296.875,953.125,696.1409755,93.75,296.875,562.5,859.375,0.339003249,-50.053125,-120,-96102,1.231073329,11,-64,-17,0.422708293,-13.7953125,-83,51,-26487,-35,6,50,57.31055433,0
689.6389816,687.5,953.125,67.26812238,67.26942145,23.87312187,55.59265442,0.097542951,97.04690669,0.140721318,13.29437724,5950.058497,2099.806107,150,864.9974096,689.6389816,96.96586542,1296.875,953.125,696.422504,93.75,296.875,562.5,859.375,0.338642183,-49.27291667,-120,-94604,1.185637885,11,-64,-12,0.422887884,-14.60625,-83,51,-28044,-40,6,50,57.45824192,0
688.6085304,687.5,953.125,66.04017346,66.04152822,23.98648649,55.74324324,0.095905765,96.57813894,0.140251151,13.302185,5923.193296,2117.945948,149,865.9265102,688.6085304,96.49653509,1296.875,953.125,695.3368173,97.65625,296.875,562.5,859.375,0.338182593,-48.93385417,-120,-93953,1.140911109,11,-64,-12,0.426751885,-14.97552083,-83,51,-28753,-45,7,50,57.14892825,1
688.9373935,687.5,953.125,65.16797508,65.1693715,24.02044293,55.36626917,0.09459404,96.69246548,0.140350148,13.32644394,5902.546145,2317.400929,148,810.396571,688.9373935,96.61006882,1296.875,953.125,695.6782572,93.75,296.875,562.5,859.375,0.337805213,-48.89010417,-123,-93869,1.529177946,13,-64,-12,0.482124788,-15.3765625,-128,80,-29523,-50,7,53,56.6475948,1
689.4866838,687.5,953.125,64.78957427,64.79100312,23.88316151,55.32646048,0.093969912,96.66863679,0.140203776,13.3177764,5900.688428,2305.08959,145,949.8493739,689.4866838,96.58555243,1296.875,953.125,696.2188278,93.75,296.875,562.5,859.375,0.340700334,-48.17916667,-123,-92504,1.452148516,15,-64,-11,0.495661246,-16.253125,-128,80,-31206,-56,7,58,56.54025062,1
690.4954663,687.5,953.125,65.79096857,65.79239032,23.48877375,55.26770294,0.095282871,96.15596087,0.13925647,13.22016179,5777.38103,2105.465696,145,1219.804129,690.4954663,96.07288875,1296.875,953.125,697.1470354,93.75,296.875,562.5,859.375,0.346784772,-47.41666667,-123,-91040,1.351370527,17,-64,-11,0.501595063,-16.83229167,-128,80,-32318,-57,7,58,56.54025062,1
690.909579,687.5,953.125,68.31896551,68.32032055,23.5395189,55.67010309,0.098884605,96.26504628,0.13933089,13.22226541,5685.133478,2054.253425,147,1172.911806,690.909579,96.18230879,1296.875,953.125,697.5722779,93.75,296.875,562.5,859.375,0.347029074,-47.07135417,-123,-90377,1.310735568,17,-64,-10.95,0.507373298,-17.1328125,-128,80,-32895,-57,7,58,56.22143689,1
690.8233276,687.5,953.125,69.34550106,69.34683145,23.32761578,55.57461407,0.100382875,96.34428224,0.139462983,13.22830735,5639.350416,2064.351916,147,1140.611809,690.8233276,96.26161875,1296.875,953.125,697.4977916,93.75,296.875,562.5,859.375,0.346587962,-46.84635417,-123,-89945,1.291553425,17,-64.05,-10.95,0.511370172,-17.55625,-128,80,-33708,-57.05,7,62,56.11193896,1
690.9423408,687.5,953.125,69.39220108,69.39353977,23.40791738,55.59380379,0.100433185,96.44518532,0.139584998,13.24784877,5659.501067,2059.300493,145,1181.286769,690.9423408,96.36215027,1296.875,953.125,697.6295452,93.75,296.875,562.5,859.375,0.349310467,-46.475,-123,-89232,1.255454153,17,-64.05,-10.95,0.513929265,-18.234375,-128,80,-35010,-57.05,7,73,56.11193896,1
690.9364261,687.5,953.125,68.93738454,68.93872743,23.71134021,56.0137457,0.09977579,96.432002,0.139567113,13.24786298,5655.664994,2068.148778,145,1184.314445,690.9364261,96.34912102,1296.875,953.125,697.6218876,93.75,296.875,562.5,859.375,0.347339211,-46.2875,-123,-88872,1.225601439,17,-64.05,-10.95,0.516048917,-18.775,-128,80,-36048,-57.05,7,75,56.11193896,1
690.6519397,687.5,953.125,69.89389116,69.89522483,23.62068966,56.20689655,0.101201808,96.40516787,0.139585748,13.25051404,5632.277354,2138.237029,145,1159.415129,690.6519397,96.32202411,1296.875,953.125,697.3363852,93.75,296.875,562.5,859.375,0.346783802,-46.20677083,-123,-88717,1.206822753,17,-65,-10.95,0.517293044,-18.95677083,-128,80,-36397,-57.05,7,75,56.11595139,1
690.4568142,687.5,953.125,67.3383821,67.33978571,23.26388889,56.07638889,0.097529323,95.39848951,0.138167207,13.01125905,5583.887817,2154.477997,142,1114.711115,690.4568142,95.31564234,1296.875,953.125,697.0047948,93.75,296.875,562.5,859.375,0.345695403,-46.35364583,-123,-88999,1.209424529,17,-65,-10.95,0.516355183,-19.32395833,-128,80,-37102,-57.05,7,75,56.11595139,1
690.2173913,687.5,953.125,67.39701125,67.39841853,23.47826087,56.34782609,0.097648102,95.24569235,0.137993759,13.00025992,5552.741474,2194.825043,144,1055.784,690.2173913,95.16283397,1296.875,953.125,696.7467346,93.75,296.875,562.5,859.375,0.345013199,-46.55208333,-123,-89380,1.202885566,17,-65,-10.95,0.516637681,-19.60989583,-128,80,-37651,-57.05,7,78,56.00356644,1
689.5996946,687.5,953.125,67.70412088,67.70553159,23.56020942,56.71902269,0.098180919,94.77029999,0.13742799,12.96801248,5518.20015,2236.109739,144,1046.686825,689.5996946,94.68756728,1296.875,953.125,696.070021,93.75,296.875,562.5,859.375,0.344330253,-46.66197917,-123,-89591,1.203276751,17,-65,-10.95,0.515490479,-19.8609375,-128,80,-38133,-57.05,7,78,55.9356768,1
689.8178447,687.5,953.125,67.44515404,67.44657017,23.21116928,56.89354276,0.097774464,94.70663698,0.13729224,12.96372339,5514.111574,2170.164646,144,1073.082184,689.8178447,94.62395985,1296.875,953.125,696.2774968,93.75,296.875,562.5,859.375,0.343568699,-46.72291667,-123,-89708,1.199811015,17,-65,-10.95,0.515105161,-20.11197917,-128,80,-38615,-57.05,7,87,55.9356768,1
689.8723822,687.5,953.125,67.5463324,67.5477464,23.21116928,56.89354276,0.097913394,94.72330971,0.137305554,12.96623593,5500.003502,2155.480483,143,1065.132635,689.8723822,94.64061802,1296.875,953.125,696.3337923,93.75,296.875,562.5,859.375,0.343197274,-46.57239583,-123,-89419,1.195234326,17,-65,-10.95,0.516398932,-20.1171875,-128,80,-38625,-57.05,7,90,55.9356768,1
690.2541449,687.5,953.125,68.06878154,68.07018469,23.38568935,56.89354276,0.098616119,94.71296038,0.13721462,12.96912234,5488.581478,2135.999128,142,1069.183238,690.2541449,94.63027773,1296.875,953.125,696.7106099,93.75,296.875,562.5,859.375,0.343994239,-46.67395833,-123,-89614,1.189870573,17,-65,-10.95,0.51507968,-19.71197917,-128,80,-37847,-57.05,9,96,56.00535472,1
690.603223,687.5,953.125,68.49628323,68.49767276,23.69337979,56.96864111,0.099185278,94.78360305,0.137247554,12.976665,5505.327326,2141.307494,142,1083.792389,690.603223,94.70100295,1296.875,953.125,697.0660597,93.75,296.875,562.5,859.375,0.345662431,-46.80677083,-123,-89869,1.188719627,17,-66,-10.95,0.513006213,-19.25729167,-128,80,-36974,-57.05,10,97,55.9356768,1
690.7937718,687.5,953.125,68.40291356,68.404305,23.69337979,56.96864111,0.099022759,94.88274784,0.137353218,12.98841867,5524.127885,2146.523142,142,1090.365746,690.7937718,94.80006133,1296.875,953.125,697.2683033,93.75,296.875,562.5,859.375,0.346832854,-46.98125,-123,-90204,1.189394095,17,-66,-10.95,0.509427093,-18.88125,-128,80,-36252,-57.05,10,101,56.19386004,1
690.6683276,687.5,953.125,68.20591516,68.20729611,23.91681109,56.67244367,0.0987555,94.65723937,0.137051658,12.95654143,5493.941852,2129.437821,142,1089.286875,690.6683276,94.57517846,1296.875,953.125,697.1134793,93.75,296.875,562.5,859.375,0.346110646,-47.19166667,-123,-90608,1.190691069,17,-66,-10.95,0.506712503,-18.553125,-128,80,-35622,-57.05,10,104,56.25744382,1
690.603223,687.5,953.125,67.3293483,67.33076192,23.69337979,56.44599303,0.09749558,93.90294136,0.135972347,12.85481275,5436.284392,2080.276981,141,1119.504615,690.603223,93.82110871,1296.875,953.125,696.9470655,93.75,286.71875,562.5,849.21875,0.34575662,-47.27291667,-123,-90764,1.196004801,17,-66,-10.95,0.504998028,-18.35,-128,80,-35232,-57.05,10,104,56.44466317,1
690.4057018,687.5,953.125,67.52111483,67.52254432,23.33333333,56.49122807,0.097801255,93.98834605,0.136134951,12.87753603,5461.107369,2118.971585,140,1145.593993,690.4057018,93.90586395,1296.875,953.125,696.7627604,93.75,289.84375,562.5,852.34375,0.34698775,-47.38072917,-123,-90971,1.20739435,17,-66,-10.95,0.503494507,-18.16666667,-128,80,-34880,-57.05,10,104,56.44466317,1
690.400613,687.5,953.125,66.89441275,66.89585058,22.94220665,56.21716287,0.096894251,93.56323283,0.135520205,12.7811331,5430.689702,2118.80876,138,1131.76838,690.400613,93.48126765,1296.875,953.125,696.7006199,93.75,289.0625,562.5,851.5625,0.345413179,-47.51770833,-123,-91234,1.22476157,17,-66,-10.95,0.50132412,-17.85677083,-128,80,-34285,-57.05,10,104,56.55041995,1
689.6456866,687.5,953.125,67.22503957,67.2264855,23.06338028,56.33802817,0.097479745,93.30178517,0.135289449,12.76744399,5414.35549,2116.071547,138,1119.1894,689.6456866,93.21961714,1296.875,953.125,695.9174305,93.75,281.25,562.5,843.75,0.345771767,-47.65416667,-123,-91496,1.239284478,17,-66,-10.95,0.498929909,-17.4546875,-128,80,-33513,-57.05,10,104,56.55041995,1
689.5943563,687.5,953.125,67.27157415,67.27302419,22.92768959,56.9664903,0.097554488,92.91769514,0.13474254,12.71924858,5371.542857,2107.496237,137,1081.259962,689.5943563,92.83572098,1296.875,953.125,695.8152393,93.75,281.25,562.5,843.75,0.345012598,-47.52708333,-123,-91252,1.236201873,17,-66,-10.95,0.499999127,-17.3375,-128,80,-33288,-57.05,10,103,56.55041995,1
689.4876325,687.5,953.125,67.76607268,67.76751725,23.32155477,57.24381625,0.098286777,92.75569933,0.134528445,12.70634967,5348.681328,2090.887833,138,1068.89751,689.4876325,92.67372344,1296.875,953.125,695.6878714,93.75,281.25,562.5,843.75,0.34660385,-47.9765625,-123,-92115,1.29920992,17,-66,-11,0.497421552,-17.20520833,-128,80,-33034,-57.05,10,103,56.55041995,1
689.7520018,687.5,953.125,67.69293906,67.69440588,23.30960854,57.11743772,0.098143109,92.53362153,0.134154916,12.68165765,5353.697927,2092.025723,136,1084.304717,689.7520018,92.45125959,1296.875,953.125,695.9202967,93.75,265.625,578.125,843.75,0.346800754,-48.58333333,-123,-93280,1.365641309,17,-66,-11,0.494404842,-16.90677083,-128,80,-32461,-57.05,10,106,56.63788455,1
688.7834821,687.5,953.125,70.54130693,70.54272461,23.21428571,57.32142857,0.1024164,93.16168414,0.135255398,12.84179555,5413.744675,2086.769249,136,1125.279034,688.7834821,93.07846689,1296.875,953.125,695.0440894,93.75,281.25,562.5,843.75,0.348834955,-48.79010417,-123,-93677,1.381817909,17,-66,-11,0.490789332,-16.48854167,-128,80,-31658,-57.05,10,108,57.28001397,1
687.6953125,687.5,953.125,69.2541473,69.25559133,23.21428571,57.32142857,0.100706796,93.34595517,0.135737373,12.9259044,5484.826957,2120.621924,137,1130.019688,687.6953125,93.26257333,1296.875,953.125,693.9904541,93.75,281.25,562.5,843.75,0.351182905,-49.12447917,-123,-94319,1.440711294,17,-66,-11,0.488949996,-16.18125,-128,80,-31068,-57.05,11,108,57.31317425,1
686.6071429,687.5,953.125,68.06463233,68.06610159,22.67857143,56.78571429,0.099133984,93.75039931,0.136541544,13.01549174,5608.261842,2176.661572,136,1147.096672,686.6071429,93.66665619,1296.875,953.125,692.9666739,109.375,281.25,562.5,843.75,0.35206284,-49.41197917,-123,-94871,1.505679402,17,-66,-11,0.488059105,-16.13854167,-128,80,-30986,-57.05,11,108,57.45824192,1
686.0999104,687.5,953.125,69.75639853,69.75784247,22.58064516,56.4516129,0.101673009,94.09422078,0.137143613,13.05820009,5624.593285,2149.119696,135,1198.419777,686.0999104,94.00986915,1296.875,953.125,692.5106083,109.375,281.25,562.5,843.75,0.352624746,-49.9859375,-123,-95973,1.613902711,17,-66,-11,0.485119958,-16.16458333,-128,80,-31036,-57.05,11,108,57.70311798,1
685.8788014,687.5,953.125,69.78170197,69.78314023,22.54025045,55.99284436,0.10174267,94.18298616,0.137317243,13.06664052,5636.428664,2186.191968,135,1179.291762,685.8788014,94.09870606,1296.875,953.125,692.303616,109.375,281.25,562.5,843.75,0.353567909,-50.49479167,-123,-96950,1.707510494,17,-66,-11,0.482344333,-16.25572917,-128,80,-31211,-57.05,11,108,57.76374144,1
685.6766158,687.5,953.125,69.09206225,69.09352533,22.44165171,56.01436266,0.100766927,94.38347951,0.137650136,13.09102905,5686.296266,2229.902481,133,1165.222093,685.6766158,94.2987166,1296.875,953.125,692.1305292,109.375,281.25,562.5,843.75,0.353873947,-50.64895833,-123,-97246,1.717917604,17,-66,-11,0.482315474,-15.7359375,-128,80,-30213,-57.05,12,110,57.56300584,1
685.5678763,687.5,953.125,69.02366552,69.02512479,22.58064516,56.27240143,0.100683138,94.33369438,0.13759935,13.08225916,5698.786131,2238.072553,133,1171.463079,685.5678763,94.24912807,1296.875,953.125,692.0160484,109.375,281.25,562.5,843.75,0.354084808,-50.70104167,-123,-97346,1.709351279,17,-67,-11,0.482322171,-15.409375,-128,80,-29586,-57.05,12,111,57.56300584,1
685.9038978,687.5,953.125,67.0915665,67.0930678,22.9390681,56.09318996,0.097817009,94.56273939,0.137865873,13.10788051,5783.082737,2375.320648,131,1074.475967,685.9038978,94.47796775,1296.875,953.125,692.3801293,109.375,281.25,562.5,843.75,0.351532938,-50.64427083,-123,-97237,1.709714588,17,-67,-11,0.482727633,-15.55260417,-128,80,-29861,-57.05,12,113,57.56300584,1
686.2421735,687.5,953.125,66.80258145,66.80408384,23.07692308,56.17173524,0.09734768,94.62188251,0.137884097,13.11452931,5761.177878,2452.486025,131,938.1948328,686.2421735,94.53720967,1296.875,953.125,692.7233248,109.375,281.25,562.5,843.75,0.347877448,-50.55260417,-123,-97061,1.706540959,17,-67,-11,0.483418105,-15.64010417,-128,80,-30029,-57.05,12,116,57.36636633,1
686.3519265,687.5,953.125,66.86251827,66.86402471,23.11827957,56.27240143,0.097419446,94.76371506,0.138068695,13.1329655,5766.183763,2442.592884,131,944.7041925,686.3519265,94.67876326,1296.875,953.125,692.8513804,109.375,281.25,562.5,843.75,0.348554685,-50.54479167,-123,-97046,1.705565903,17,-67,-11,0.483966677,-15.228125,-128,80,-29238,-57.05,12,117,57.36636633,1
686.7453041,687.5,953.125,66.95958656,66.96108543,23.25581395,56.52951699,0.097504978,94.97338694,0.13829492,13.15093952,5775.269913,2461.873213,132,932.2523871,686.7453041,94.88839955,1296.875,953.125,693.2697318,109.375,281.25,562.5,843.75,0.348608595,-50.5703125,-123,-97095,1.698315295,17,-67,-11,0.484048451,-14.91354167,-128,80,-28634,-57.05,12,111,57.36636633,1
686.827957,687.5,953.125,66.80349322,66.80500099,23.11827957,56.81003584,0.09726599,95.0938057,0.138453604,13.16715372,5795.69815,2491.768757,131,914.4434493,686.827957,95.00855799,1296.875,953.125,693.3680614,109.375,281.25,562.5,843.75,0.3491942,-50.63645833,-123,-97222,1.681860423,17,-67,-11,0.485057992,-14.4671875,-128,80,-27777,-57.05,13,116,57.28001397,1
686.6629464,687.5,953.125,66.88008218,66.88157747,23.03571429,56.42857143,0.097400883,95.1428124,0.138558244,13.17083821,5796.47093,2502.032692,132,899.1761588,686.6629464,95.0578255,1296.875,953.125,693.2113618,109.375,281.25,562.5,843.75,0.348185685,-50.6796875,-123,-97305,1.673109745,17,-67,-11,0.484897581,-14.26770833,-128,80,-27394,-57.05,13,121,57.28001397,1
686.8303571,687.5,953.125,66.79513466,66.79663185,22.67857143,56.25,0.097253465,95.03390798,0.138365911,13.15199428,5767.431183,2493.950237,133,877.8878551,686.8303571,94.94901836,1296.875,953.125,693.3622831,109.375,281.25,562.5,843.75,0.346672177,-50.67760417,-123,-97301,1.672278438,17,-67,-11,0.486165052,-14.2328125,-128,80,-27327,-57.05,13,121,57.28001397,1
687.1645796,687.5,953.125,66.85495746,66.85645867,22.36135957,56.17173524,0.097293226,95.1667848,0.138491982,13.17428927,5797.706215,2519.885629,132,890.5293211,687.1645796,95.08162435,1296.875,953.125,693.7115213,109.375,281.25,562.5,843.75,0.346752941,-50.78541667,-123,-97508,1.649767775,17,-68,-11,0.48916062,-14.015625,-128,80,-26910,-57.05,13,124,57.07714027,1
687.7244165,687.5,953.125,66.85040304,66.85191518,22.26211849,56.37342908,0.097207419,95.14910066,0.13835353,13.17884797,5795.304934,2530.229656,131,892.8480576,687.7244165,95.06365017,1296.875,953.125,694.2636176,109.375,281.25,562.5,843.75,0.346932075,-50.81197917,-123,-97559,1.652947258,17,-68,-11,0.489313669,-13.78697917,-128,80,-26471,-57.05,13,124,57.07714027,1
688.0049372,687.5,953.125,66.85697115,66.85848313,22.26211849,56.5529623,0.09717733,95.05568008,0.138161334,13.17056266,5790.157429,2533.053531,131,903.6174814,688.0049372,94.97031349,1296.875,953.125,694.528728,109.375,281.25,562.5,843.75,0.346741761,-50.80729167,-123,-97550,1.628747206,17,-68,-11,0.49087914,-13.68489583,-128,80,-26275,-57.05,13,126,56.71816284,1
688.2306655,687.5,953.125,67.04195666,67.04346991,22.48201439,56.83453237,0.097414244,95.1028149,0.138184507,13.18056057,5802.463681,2542.51885,132,918.8333086,688.2306655,95.0172523,1296.875,953.125,694.7587546,109.375,281.25,562.5,843.75,0.347142944,-50.346875,-123,-96666,1.535048232,17,-68,-11,0.494863365,-13.78072917,-128,80,-26459,-57.05,13,126,56.65597925,1
688.4257181,687.5,953.125,67.32166852,67.32317007,22.80071813,56.91202873,0.097792933,95.11023492,0.138156133,13.18020433,5783.872237,2570.447399,133,889.8598851,688.4257181,95.02481934,1296.875,953.125,694.9530097,109.375,281.25,562.5,843.75,0.346898626,-49.70416667,-123,-95432,1.422298563,19,-68,-11,0.498635246,-13.85208333,-128,80,-26596,-57.05,13,126,56.54113534,1
688.6200717,687.5,953.125,65.32395335,65.32549527,22.58064516,56.81003584,0.09486435,94.35382253,0.137018693,13.06694539,5752.534903,2548.771573,133,893.9846166,688.6200717,94.26923818,1296.875,953.125,695.0426551,109.375,281.25,562.5,843.75,0.344777303,-49,-123,-94080,1.315300373,21,-68,-10,0.502587633,-13.98541667,-128,80,-26852,-57.05,13,126,56.52433104,1
688.2013016,687.5,953.125,63.78491597,63.78650078,22.62118492,56.5529623,0.092685818,94.21226597,0.136896379,13.06000578,5752.458125,2592.151795,131,870.0248089,688.2013016,94.12765682,1296.875,953.125,694.6085569,109.375,268.75,562.5,831.25,0.345078079,-48.34322917,-123,-92819,1.219891597,23,-68,-10,0.507614928,-14.15416667,-128,80,-27176,-57.05,13,126,56.50398097,1
688.3944544,687.5,953.125,64.31321015,64.31477069,22.54025045,56.70840787,0.093427206,94.06255804,0.136640494,13.041398,5707.066447,2538.9824,132,882.7904739,688.3944544,93.97838572,1296.875,953.125,694.7797218,109.375,267.1875,562.5,829.6875,0.346446204,-48.0640625,-123,-92283,1.169175081,23,-68,-10,0.509222444,-14.07447917,-128,80,-27023,-57.05,13,126,56.52344633,1
687.8627232,687.5,953.125,64.09232652,64.09388684,22.32142857,56.42857143,0.093178311,94.14213006,0.136861799,13.05990444,5789.549136,2543.113385,131,958.9940308,687.8627232,94.05803703,1296.875,953.125,694.2636677,109.375,266.40625,562.5,828.90625,0.349582304,-48.00520833,-123,-92170,1.16597328,23,-68,-10,0.510009342,-13.90989583,-128,80,-26707,-57.05,13,124,56.52344633,1
687.3893805,687.5,953.125,64.93732867,64.93884151,22.12389381,55.57522124,0.094471697,94.00814894,0.136761131,13.04392415,5685.96017,2487.618253,131,908.5828685,687.3893805,93.92491905,1296.875,953.125,693.7766578,109.375,265.625,562.5,828.125,0.346901192,-48.03125,-123,-92220,1.16858209,23,-68,-10,0.508899114,-13.71875,-128,80,-26340,-57.05,13,124,56.52433104,1
687.2519841,687.5,953.125,63.57955304,63.58108728,21.86948854,55.37918871,0.092514956,93.86232859,0.136576293,13.01880257,5699.897637,2492.454626,133,911.5911535,687.2519841,93.77952105,1296.875,953.125,693.6208534,109.375,265.625,562.5,828.125,0.346229645,-48.21041667,-123,-92564,1.174867812,23,-68,-10,0.507614126,-13.70833333,-128,80,-26320,-57.05,14,128,56.44466317,1
687.2807018,687.5,953.125,64.39204885,64.3935478,22.45614035,55.78947368,0.093693228,93.8549494,0.13655985,13.0218039,5665.021429,2414.128203,133,956.0084927,687.2807018,93.77258436,1296.875,953.125,693.6483696,109.375,265.625,562.5,828.125,0.349060829,-48.18802083,-123,-92521,1.169249808,23,-68,-10,0.508665703,-13.84947917,-128,80,-26591,-57.05,14,130,56.44111765,1
687.5,687.5,953.125,64.97152346,64.97300384,22.06654991,55.86690018,0.094506187,93.90520778,0.136589393,13.03368992,5630.462458,2401.285748,133,936.9238964,687.5,93.82294302,1296.875,953.125,693.8724628,109.375,265.625,562.5,828.125,0.349635271,-48.5921875,-123,-93297,1.218771653,23,-68,-10,0.507215797,-14.34427083,-128,80,-27541,-57.05,14,134,56.44111765,1
687.9370629,687.5,953.125,65.32824652,65.32971366,22.02797203,55.76923077,0.094964666,93.95398954,0.136573525,13.04142237,5643.587348,2426.483194,134,958.0858255,687.9370629,93.871826,1296.875,953.125,694.3121217,109.375,265.625,562.5,828.125,0.351718065,-48.91822917,-123,-93923,1.261961009,23,-68,-10,0.504948435,-14.62447917,-128,80,-28079,-57.05,14,135,56.25744382,1
688.2362565,687.5,953.125,65.51262169,65.51407959,21.9895288,56.19546248,0.095191265,94.01307002,0.136599996,13.04433876,5650.065413,2448.145172,132,963.7350382,688.2362565,93.93099835,1296.875,953.125,694.6165685,109.375,265.625,562.5,828.125,0.352767731,-48.92135417,-123,-93929,1.383879359,22,-68,-10,0.466781752,-14.96510417,-128,80,-28733,-57,13,127,56.54201977,1
688.754363,687.5,953.125,65.19914838,65.20061329,21.81500873,55.4973822,0.094664538,93.83716072,0.136241839,13.02051297,5635.056533,2460.245322,132,954.1071483,688.754363,93.75524263,1296.875,953.125,695.1061919,109.375,265.625,562.5,828.125,0.351290784,-48.87604167,-123,-93842,1.447711169,21,-68,-10,0.448737167,-15.6296875,-128,80,-30009,-57.05,12,131,57.14367398,1
688.8682137,687.5,953.125,65.06375131,65.06522958,22.06654991,55.51663748,0.094452362,93.93626807,0.136363191,13.03587053,5649.597623,2472.927123,132,947.0082666,688.8682137,93.8539761,1296.875,953.125,695.2323242,109.375,265.625,562.5,828.125,0.350533742,-49.434375,-123,-94914,1.518187427,15,-68,-11,0.4456154,-16.21822917,-128,80,-31139,-57.05,12,137,56.83264903,1
688.9699477,687.5,953.125,64.9719531,64.97341801,22.12543554,55.22648084,0.094305155,93.87471676,0.136253718,13.02101434,5637.285988,2466.418881,133,946.6887575,688.9699477,93.79290871,1296.875,953.125,695.3248871,109.375,265.625,562.5,828.125,0.349307784,-49.9640625,-123,-95931,1.556240957,12,-68,-11,0.44286206,-16.846875,-128,80,-32346,-57.05,12,141,57.27652022,1
689.0270506,687.5,953.125,65.85053382,65.85198424,22.51308901,55.4973822,0.095572422,94.35023977,0.136932563,13.07036358,5670.234731,2442.463618,133,959.0936759,689.0270506,94.26787376,1296.875,953.125,695.4456905,109.375,271.875,562.5,834.375,0.347516697,-49.88333333,-123,-95776,1.5356896,12,-68,-11,0.442446853,-17.021875,-128,80,-32682,-60,12,141,57.28001397,1
688.8066202,687.5,953.125,66.24481754,66.2462543,22.64808362,55.40069686,0.096175403,94.90181505,0.137777153,13.12275538,5744.815054,2385.394468,132,1044.977253,688.8066202,94.81911193,1296.875,953.125,695.3022537,109.375,281.25,562.5,843.75,0.349930348,-50.24479167,-123,-96470,1.597360348,12,-68,-12,0.441750483,-16.55885417,-128,80,-31793,-54,12,140,57.20707843,1
689.2693815,687.5,953.125,65.5595003,65.56095208,22.64808362,55.57491289,0.095116588,95.14317011,0.138034813,13.15018838,5806.304526,2353.826994,131,1060.374581,689.2693815,95.06025666,1296.875,953.125,695.7935992,109.375,281.25,562.5,843.75,0.348445853,-50.55729167,-123,-97070,1.623720344,12,-68,-15,0.441543182,-16.44791667,-128,80,-31580,-53,12,142,56.82076878,1
689.306042,687.5,953.125,65.86848782,65.86994804,22.41681261,55.51663748,0.095559801,95.39037137,0.138386095,13.18247847,5840.937446,2341.504526,130,1086.077558,689.306042,95.30680555,1296.875,953.125,695.8636409,109.375,281.25,562.5,843.75,0.349798316,-50.20833333,-123,-96400,1.556669678,12,-68,-15,0.433848954,-16.87395833,-128,80,-32398,-54,12,141,56.83264903,1
689.4154991,687.5,953.125,65.94647294,65.94793143,22.41681261,55.34150613,0.095657744,95.36128713,0.138321937,13.18058166,5828.814755,2274.03608,129,1099.550376,689.4154991,95.27774679,1296.875,953.125,695.968088,109.375,281.25,562.5,843.75,0.349358386,-49.63333333,-94,-95296,1.117149066,10,-67,-14,0.369231862,-17.1625,-81,21,-32952,-54,11,135,57.03770054,1
689.6344133,687.5,953.125,65.64702689,65.64849204,22.76707531,55.69176883,0.095193179,95.37459557,0.138297326,13.18171091,5815.648409,2260.791692,130,1055.275788,689.6344133,95.29104357,1296.875,953.125,696.1867616,109.375,281.25,562.5,843.75,0.346663094,-49.709375,-94,-95442,1.05920036,8,-67,-14,0.35083691,-16.878125,-81,21,-32406,-52,11,131,56.97104412,1
690.0949647,687.5,953.125,64.88649901,64.88800767,21.73144876,55.30035336,0.09402765,95.62647467,0.138570022,13.22262441,5896.831351,2269.135551,127,1070.087379,690.0949647,95.54196164,1296.875,953.125,696.6773476,109.375,281.25,562.5,843.75,0.346248077,-49.64583333,-94,-95320,1.053572977,6,-67,-13.95,0.347705689,-16.76875,-81,21,-32196,-52,11,131,56.97104412,1
690.6803097,687.5,953.125,65.04389752,65.04540788,21.7699115,55.39823009,0.094175854,95.591748,0.138402307,13.22272096,5927.525705,2303.971868,125,1076.832207,690.6803097,95.50711607,1296.875,953.125,697.252393,109.375,281.25,562.5,843.75,0.346862589,-49.57708333,-94,-95188,1.047757969,6,-67,-13,0.344918785,-16.8140625,-81,21,-32283,-52,11,131,57.04033456,1
690.8821556,687.5,953.125,64.87540865,64.87695567,21.64579606,55.63506261,0.093904518,95.72390084,0.138553153,13.23928254,5966.622954,2376.123488,124,1055.930524,690.8821556,95.63824186,1296.875,953.125,697.4703049,109.375,281.25,562.5,843.75,0.347479159,-49.09583333,-94,-94264,1.105825261,7,-67,-12,0.346043455,-16.39427083,-81,21,-31477,-52,11,128,56.97104412,1
691.0345601,687.5,953.125,65.11347959,65.11503207,21.54398564,55.47576302,0.094228329,95.81503332,0.138654474,13.25505879,5988.260062,2381.056841,123,1069.441953,691.0345601,95.72898478,1296.875,953.125,697.6337161,109.375,281.25,562.5,843.75,0.347890805,-48.35052083,-94,-92833,1.182437168,11,-67,-10,0.346700235,-15.68385417,-81,21,-30113,-50,11,117,56.82076878,1
690.7939189,687.5,953.125,65.23090145,65.23246234,21.62162162,55.31531532,0.094431147,95.79673686,0.138676289,13.25934574,5988.003842,2397.765187,123,1073.68892,690.7939189,95.71039458,1296.875,953.125,697.3928004,109.375,281.25,562.5,843.75,0.348441372,-47.38177083,-94,-90973,1.296285153,11,-67,-6,0.347024079,-15.12552083,-81,21,-29041,-49,11,115,56.60918444,1
691.1999089,687.5,953.125,66.09450375,66.09607817,22.04007286,56.10200364,0.095625126,95.99282845,0.138878532,13.28894312,5995.63634,2407.434819,123,1036.8524,691.1999089,95.90536344,1296.875,953.125,697.82172,93.75,281.25,562.5,843.75,0.347866989,-47.29427083,-94,-90805,1.267512903,14,-68,-4.95,0.39101436,-15.5625,-81,21,-29880,-52,11,123,56.45307783,1
691.6284404,687.5,953.125,65.13547222,65.13709339,21.65137615,56.14678899,0.094179316,95.92666976,0.138696826,13.27028301,6036.184979,2434.215462,121,1056.560148,691.6284404,95.83862323,1296.875,953.125,698.2370237,93.75,281.25,562.5,843.75,0.347505722,-46.53802083,-94,-89353,1.168478131,15,-68,-4.95,0.393567545,-16.19427083,-81,21,-31093,-57,11,122,56.29209483,1
692.2453704,687.5,953.125,65.32602713,65.3276737,21.2962963,56.11111111,0.094370691,96.1876589,0.138950238,13.30798564,6020.366109,2377.399009,122,1062.659445,692.2453704,96.09855499,1296.875,953.125,698.8838137,93.75,281.25,562.5,843.75,0.347145237,-45.77708333,-94,-87892,1.083915564,15,-67,-4,0.394108528,-16.98697917,-88,21,-32615,-59,11,121,56.36975871,1
692.8819444,687.5,953.125,65.24276968,65.24441835,21.48148148,56.48148148,0.094163831,96.24824685,0.138910023,13.31506972,6041.588887,2344.720936,123,1084.028263,692.8819444,96.1590868,1296.875,953.125,699.522665,93.75,281.25,562.5,843.75,0.345587561,-45.13072917,-94,-86651,1.002903016,15,-67,-4,0.396188522,-17.64322917,-88,21,-33875,-60,11,122,56.36975871,1
693.0164048,687.5,953.125,65.42464844,65.42628645,21.25693161,56.1922366,0.094407991,96.29448102,0.138949786,13.31718914,5995.045406,2358.735189,123,1010.008391,693.0164048,96.2054431,1296.875,953.125,699.6622218,93.75,281.25,562.5,843.75,0.344694129,-44.47135417,-94,-85385,0.927397422,15,-67,-4,0.399570716,-18.33229167,-88,21,-35198,-61,11,117,56.36975871,1
693.1319316,687.5,953.125,65.05736486,65.05901212,21.62661738,56.1922366,0.093862379,96.19852645,0.13878819,13.30498798,5981.341029,2370.062302,123,1012.793692,693.1319316,96.10957726,1296.875,953.125,699.7634782,93.75,281.25,562.5,843.75,0.343348004,-43.834375,-94,-84162,0.862072866,17,-67,-2.95,0.407871309,-19.1859375,-88,21,-36837,-62.05,11,114,56.22988476,1
692.9108796,687.5,953.125,65.96770967,65.96934022,21.48148148,56.11111111,0.095206097,96.02753616,0.138585695,13.29211004,5987.207234,2352.280599,123,1059.7782,692.9108796,95.93858057,1296.875,953.125,699.5210493,93.75,281.25,562.5,843.75,0.343922841,-43.02760417,-94,-82613,0.786306582,19,-67,-2,0.412301002,-20.33802083,-88,21,-39049,-63,11,110,56.14623279,1
692.1092301,687.5,953.125,64.66090485,64.66257455,20.96474954,55.84415584,0.093428279,95.36751412,0.137792577,13.25187301,5891.715896,2432.591156,124,999.6183686,692.1092301,95.27900597,1296.875,953.125,698.6367263,93.75,281.25,562.5,843.75,0.344390149,-42.25989583,-94,-81139,0.713950626,19,-67,-2,0.415439285,-21.58020833,-90,21,-41434,-65,10,113,55.98214001,1
692.6310297,687.5,953.125,63.53523784,63.53693712,20.96474954,55.47309833,0.091732733,95.14069702,0.137361298,13.22478774,5902.805838,2473.090083,123,1033.159149,692.6310297,95.05239937,1296.875,953.125,699.1228089,93.75,281.25,562.5,843.75,0.342296645,-41.4859375,-94,-79653,0.662069719,21,-67,-1,0.425710621,-22.58958333,-90,21,-43372,-65,10,112,55.80232956,1
692.8049629,687.5,953.125,63.99071768,63.99240487,20.96474954,55.65862709,0.092367128,95.13113943,0.137313017,13.2258784,5906.746666,2463.343835,124,1086.896082,692.8049629,95.04285065,1296.875,953.125,699.2938296,93.75,281.25,562.5,843.75,0.343567725,-40.70833333,-94,-78160,0.61265248,23,-67,0,0.4332907,-23.59895833,-93,21,-45310,-67,10,113,55.54817507,1
693.2002315,687.5,953.125,64.47456677,64.47623509,21.11111111,55.74074074,0.093012426,95.26720359,0.137431004,13.23273932,5915.922571,2416.433165,123,1149.432217,693.2002315,95.17895234,1296.875,953.125,699.703933,93.75,281.25,562.5,843.75,0.34611951,-39.97239583,-94,-76747,0.543117387,23,-67,0,0.438071494,-24.44739583,-93,21,-46939,-68,10,115,55.47611876,1
693.8250924,687.5,953.125,66.30328321,66.30489951,21.07208872,56.00739372,0.095564286,95.92940229,0.13826165,13.26306835,5886.700118,2450.916229,123,1122.277714,693.8250924,95.84070195,1296.875,953.125,700.4132345,93.75,281.25,562.5,843.75,0.347494582,-39.20885417,-94,-75281,0.473734147,23,-67,0,0.440564249,-25.24166667,-93,21,-48464,-68,10,116,55.47611876,1
693.7327665,687.5,953.125,64.92590193,64.92753433,21.32352941,56.06617647,0.093591564,96.38532298,0.13893725,13.31560263,5999.41955,2525.89912,124,1102.219078,693.7327665,96.29669278,1296.875,953.125,700.3843262,93.75,281.25,562.5,843.75,0.347512894,-38.57395833,-94,-74062,0.412323988,23,-67,0,0.444140736,-26.040625,-93,21,-49998,-68,10,116,55.47611876,1
